"Time (s)","Acceleration x (m/s^2)","Acceleration y (m/s^2)","Acceleration z (m/s^2)","Absolute acceleration (m/s^2)"
1.856612499E-2,-4.501888275E0,5.117557983E0,7.984995117E0,1.049840677E1
2.862512498E-2,-4.328848114E0,4.491410065E0,8.011340332E0,1.015348533E1
3.868412500E-2,-4.268822937E0,4.092339935E0,7.985593872E0,9.936790473E0
4.874312499E-2,-4.217928772E0,3.996688843E0,7.814799042E0,9.738353500E0
5.880212499E-2,-4.166884918E0,3.998185730E0,7.709867249E0,9.632781117E0
6.886012500E-2,-4.007765808E0,4.047433319E0,7.657176819E0,9.543388291E0
7.891912499E-2,-4.050277405E0,4.285737762E0,7.788902893E0,9.769304146E0
8.897812499E-2,-4.061504059E0,4.543501740E0,8.033194885E0,1.008322584E1
9.903712498E-2,-4.001478882E0,4.627327423E0,8.241411896E0,1.026376453E1
1.090961250E-1,-4.082909546E0,4.574337616E0,8.324638824E0,1.033897125E1
1.191551250E-1,-4.095633087E0,4.536765747E0,8.300988007E0,1.030838764E1
1.292141250E-1,-3.990102539E0,4.487069092E0,8.059540100E0,1.005041760E1
1.392731250E-1,-3.902534637E0,4.275259552E0,7.716004486E0,9.645949723E0
1.493311250E-1,-3.995790710E0,4.156855774E0,7.555538177E0,9.504312204E0
1.593901250E-1,-4.236340485E0,4.103716278E0,7.451654205E0,9.503379314E0
1.694491250E-1,-4.433031464E0,4.146377563E0,7.500752106E0,9.649118976E0
1.795081250E-1,-4.635859680E0,4.237687683E0,7.616311798E0,9.872051321E0
1.895671250E-1,-4.790039062E0,4.332440643E0,7.651937714E0,1.001332447E1
1.996261250E-1,-4.792284393E0,4.362228699E0,7.576793976E0,9.970097085E0
2.096851250E-1,-4.741390228E0,4.298760681E0,7.555837555E0,9.902060687E0
2.197441250E-1,-4.678520966E0,4.240232391E0,7.682923279E0,9.944618608E0
2.298031250E-1,-4.635111237E0,4.330494690E0,7.761360168E0,1.002377933E1
2.398611250E-1,-4.556824036E0,4.381688232E0,7.627538452E0,9.906723974E0
2.499201250E-1,-4.472549286E0,4.268224182E0,7.360643463E0,9.612518243E0
2.599791250E-1,-4.590503998E0,4.176015930E0,7.243886261E0,9.538643728E0
2.700381250E-1,-4.683760071E0,4.184997253E0,7.394622803E0,9.702177941E0
2.800971250E-1,-4.690645752E0,4.210294647E0,7.585475922E0,9.862463361E0
2.901561250E-1,-4.710554352E0,4.143683167E0,7.482490082E0,9.764583468E0
3.002151250E-1,-4.750072174E0,4.054468689E0,7.231462097E0,9.554891212E0
3.102741250E-1,-4.855902100E0,4.096381531E0,7.102280731E0,9.529035546E0
3.203331250E-1,-4.931644592E0,4.240232391E0,7.153474274E0,9.668137530E0
3.303911250E-1,-4.988975372E0,4.411176910E0,7.414830780E0,9.966346999E0
3.404501250E-1,-5.072351990E0,4.580025787E0,7.743247833E0,1.032779153E1
3.505091250E-1,-4.886588287E0,4.606221313E0,7.976462860E0,1.042688734E1
3.605681250E-1,-4.579427032E0,4.406985626E0,7.832911377E0,1.008698046E1
3.706271250E-1,-4.304448853E0,3.919748840E0,7.485334167E0,9.482770613E0
3.806861250E-1,-4.102518768E0,3.625011749E0,7.451205139E0,9.246179127E0
3.907451250E-1,-3.819158020E0,3.691323853E0,7.531587982E0,9.216108577E0
4.008041250E-1,-3.563639374E0,3.896547089E0,7.587721252E0,9.244247866E0
4.108631250E-1,-3.513942719E0,4.012406158E0,7.714657288E0,9.378866332E0
4.209221250E-1,-3.611839142E0,4.041445770E0,7.788753204E0,9.489117049E0
4.309801250E-1,-3.645369415E0,4.111350403E0,7.716303864E0,9.472764413E0
4.410391250E-1,-3.719615021E0,4.354295197E0,7.646249542E0,9.553039026E0
4.510981250E-1,-3.811823273E0,4.422702942E0,7.519612885E0,9.520235076E0
4.611571250E-1,-3.916306000E0,3.896696777E0,7.167994080E0,9.049963402E0
4.712161250E-1,-3.615731049E0,3.773802338E0,7.119045868E0,8.831529266E0
4.812743750E-1,-3.169958038E0,4.070934448E0,7.481741638E0,9.088322133E0
4.913333750E-1,-2.840044098E0,4.078867950E0,7.870782623E0,9.308718136E0
5.013923750E-1,-2.448608093E0,3.862118683E0,8.382718048E0,9.548905916E0
5.114513750E-1,-2.025587769E0,3.482957153E0,8.233029327E0,9.166066127E0
5.215093750E-1,-2.245330811E0,3.267704773E0,8.181386719E0,9.091451676E0
5.315683750E-1,-2.557880859E0,3.407064972E0,8.326285400E0,9.352960750E0
5.416273750E-1,-2.685864716E0,3.729644165E0,8.489296417E0,9.653614273E0
5.516863750E-1,-2.640808411E0,4.032314758E0,8.591683502E0,9.851419023E0
5.617453750E-1,-2.461032257E0,4.204157410E0,8.468040619E0,9.769305565E0
5.718043750E-1,-2.375260620E0,4.289479980E0,8.231382751E0,9.581083630E0
5.818633750E-1,-2.433639221E0,4.343367920E0,8.161627808E0,9.560314494E0
5.919223750E-1,-2.585872650E0,4.352798309E0,8.417745209E0,9.823035421E0
6.019813750E-1,-2.750530243E0,4.214485931E0,8.712033234E0,1.006115457E1
6.120393750E-1,-2.736908569E0,3.819158020E0,8.747210083E0,9.929265871E0
6.220983750E-1,-2.687810669E0,3.475772095E0,8.932075653E0,9.954260059E0
6.321573750E-1,-2.717748413E0,3.159180450E0,8.922196198E0,9.847444468E0
6.422163750E-1,-2.802172852E0,2.824925537E0,8.850495300E0,9.703795342E0
6.522753750E-1,-2.615061951E0,2.743794250E0,8.812474365E0,9.593052712E0
6.623343750E-1,-2.190694427E0,2.865640869E0,8.697663116E0,9.415964282E0
6.723933750E-1,-1.541793823E0,3.400328979E0,8.277337189E0,9.080400668E0
6.824523750E-1,-9.939331055E-1,4.228257294E0,7.814948730E0,8.940888458E0
6.925113750E-1,-8.668473816E-1,4.996010742E0,7.144343262E0,8.760889701E0
7.025693750E-1,-1.405876465E0,4.954097900E0,6.524332581E0,8.311828335E0
7.126283750E-1,-2.349364471E0,4.169429626E0,6.366111603E0,7.964360223E0
7.226873750E-1,-2.597398682E0,3.675456848E0,6.091732178E0,7.573946387E0
7.327463750E-1,-2.436932373E0,2.609224091E0,5.839955750E0,6.844835491E0
7.428053750E-1,-1.756597137E0,2.299368439E0,5.651497650E0,6.349185334E0
7.528643750E-1,-8.619076538E-1,2.750979309E0,5.885311432E0,6.553446621E0
7.629233750E-1,-2.715353394E-1,3.024161224E0,6.758745117E0,7.409447895E0
7.729823750E-1,-7.364685059E-2,2.792592773E0,7.209757233E0,7.732050026E0
7.830413750E-1,2.558180237E-1,2.599943390E0,7.500153351E0,7.942131249E0
7.930993750E-1,8.873547363E-1,2.587070160E0,8.319549408E0,8.757581446E0
8.031583750E-1,1.378034363E0,2.481090546E0,9.521250458E0,9.935240273E0
8.132173750E-1,1.608255615E0,2.264041901E0,9.843530273E0,1.022777884E1
8.232763750E-1,1.424886932E0,2.168839874E0,9.497599640E0,9.845738575E0
8.333353750E-1,9.566606140E-1,2.277663574E0,8.972641296E0,9.306516143E0
8.433943750E-1,-1.362167358E-2,1.889071655E0,8.462352448E0,8.670650853E0
8.534533750E-1,-1.172811127E0,-3.001258850E-1,1.047132477E1,1.054107224E1
8.635123750E-1,-1.542691956E0,-2.035018158E0,5.679339752E0,6.227045639E0
8.735713750E-1,-1.647174683E0,-1.355131989E0,2.288890228E0,3.128671542E0
8.836303750E-1,-1.606609039E0,4.252656555E-1,1.706002350E0,2.381698449E0
8.936883750E-1,-8.174501038E-1,1.711391144E0,2.341730347E0,3.013434143E0
9.037473750E-1,1.028511200E0,2.511627045E0,3.416794739E0,4.363552680E0
9.138063750E-1,2.477198639E0,2.861299896E0,5.489833832E0,6.667970133E0
9.238653750E-1,1.585353241E0,2.523602142E0,8.248596954E0,8.770476862E0
9.339243750E-1,1.218017120E0,1.862876129E0,9.542805634E0,9.798929153E0
9.439833750E-1,2.745889893E0,1.630559235E0,9.522148590E0,1.004340323E1
9.540423750E-1,3.208128662E0,1.562450867E0,1.043315414E1,1.102651566E1
9.641013750E-1,3.003653870E0,1.539847870E0,1.053913376E1,1.106645419E1
9.741603750E-1,3.603905640E0,1.815873871E0,9.185199280E0,1.003261778E1
9.842183750E-1,3.633993073E0,2.167342987E0,6.838678894E0,8.041816355E0
9.942773750E-1,2.434537354E0,2.298619995E0,5.805677032E0,6.701978201E0
1.004336375E0,1.974094849E0,1.347048798E0,7.737110596E0,8.097806574E0
1.014395375E0,2.514620819E0,6.228547668E-1,1.082129700E1,1.112707215E1
1.024454375E0,2.235900421E0,8.562194824E-1,1.392164978E1,1.412602899E1
1.034513375E0,2.468516693E0,6.111790466E-1,1.542751831E1,1.563571027E1
1.044572375E0,3.680995331E0,8.577163696E-2,1.587628510E1,1.629765357E1
1.054631375E0,4.734803925E0,4.225712585E-1,1.482861374E1,1.557192089E1
1.064690375E0,5.281766510E0,9.339079285E-1,1.296693512E1,1.403248545E1
1.074749375E0,5.057981873E0,1.425485687E0,1.166464325E1,1.279371300E1
1.084807375E0,5.202581177E0,2.213297424E0,1.023646317E1,1.169404611E1
1.094866375E0,6.337221680E0,3.235372009E0,9.621841278E0,1.196694782E1
1.104925375E0,7.087012482E0,3.705843658E0,9.435029755E0,1.236846028E1
1.114984375E0,6.867419128E0,3.219055939E0,9.158105621E0,1.189094888E1
1.125043375E0,5.875282288E0,2.375709686E0,8.350385284E0,1.048293246E1
1.135102375E0,6.198759613E0,2.456990662E0,9.269024963E0,1.141824188E1
1.145161375E0,8.581055603E0,3.270249481E0,1.149384842E1,1.471181832E1
1.155220375E0,9.980944519E0,3.951782227E0,1.284164566E1,1.673749382E1
1.165279375E0,1.103460342E1,4.614753571E0,1.385833145E1,1.830605839E1
1.175338375E0,1.152124146E1,4.768483887E0,1.366268829E1,1.849720235E1
1.185396375E0,1.106109833E1,4.405339050E0,1.273057663E1,1.743050457E1
1.195455375E0,1.042507095E1,4.072131958E0,1.094119766E1,1.565165069E1
1.205514375E0,9.394763489E0,3.842659149E0,9.070986786E0,1.361287668E1
1.215573375E0,8.191116486E0,3.520379333E0,7.655081177E0,1.175107347E1
1.225632375E0,7.333998871E0,2.995570679E0,6.708599396E0,1.038105433E1
1.235691375E0,6.953490143E0,2.633024597E0,6.419251099E0,9.822964337E0
1.245750375E0,6.795867920E0,2.351310425E0,6.994804230E0,1.003193739E1
1.255809375E0,6.634353790E0,2.182012482E0,7.388934631E0,1.016721120E1
1.265868375E0,6.440656586E0,2.084864502E0,7.323969727E0,9.973427184E0
1.275926375E0,6.414011993E0,1.956880646E0,7.198231201E0,9.837858717E0
1.285985375E0,6.218817902E0,1.835183716E0,6.862928467E0,9.441471416E0
1.296044375E0,5.094505920E0,9.645941162E-1,6.656507721E0,8.437625698E0
1.306103375E0,3.924688568E0,-2.677931213E-1,6.697223053E0,7.767090197E0
1.316162375E0,4.161047058E0,1.395098877E-1,6.969357147E0,8.118233470E0
1.326221375E0,4.517306213E0,8.482859802E-1,6.706054688E0,8.129994711E0
1.336280375E0,4.780309296E0,1.244212646E0,6.581813049E0,8.229197111E0
1.346339375E0,4.964426422E0,1.093326416E0,6.469097443E0,8.227400201E0
1.356398375E0,4.696333923E0,5.257067871E-1,5.757477264E0,7.448520954E0
1.366457375E0,4.577630768E0,1.317260742E-2,5.294789429E0,6.999262251E0
1.376515375E0,4.585115204E0,-2.426454163E-1,4.691394196E0,6.564399266E0
1.386574375E0,4.396806793E0,-3.906875610E-1,3.942950592E0,5.918733489E0
1.396633375E0,4.903952179E0,-5.779481506E-1,3.657494202E0,6.144919436E0
1.406692375E0,5.947132874E0,-6.150709534E-1,3.319946136E0,6.838767728E0
1.416751375E0,6.068829803E0,-8.159532166E-1,2.624791718E0,6.662282371E0
1.426810375E0,5.552852783E0,-1.106049957E0,2.029030609E0,6.014522903E0
1.436869375E0,4.854704590E0,-1.388213196E0,2.206262054E0,5.510252697E0
1.446928375E0,4.243974609E0,-1.961371307E0,1.950743408E0,5.065935031E0
1.456987375E0,3.851191406E0,-2.648292847E0,1.549278259E0,4.923961147E0
1.467045375E0,3.881278839E0,-3.143163757E0,1.336570587E0,5.170128119E0
1.477104375E0,4.111649780E0,-3.439397736E0,1.072669373E0,5.466785187E0
1.487164250E0,4.004622345E0,-4.352947998E0,9.132508850E-1,5.984912997E0
1.497223250E0,5.468578033E0,-4.267625427E0,4.463717651E-1,6.951058930E0
1.507282250E0,8.091573486E0,-2.810854797E0,-1.008901978E-1,8.566483818E0
1.517341250E0,9.536219330E0,-1.921703796E0,2.290237427E-1,9.730615421E0
1.527400250E0,9.849667511E0,-2.415227509E0,4.330494690E-1,1.015070470E1
1.537459250E0,9.448950806E0,-3.522774353E0,3.326083374E-1,1.008975910E1
1.547518250E0,8.655750275E0,-4.466412048E0,4.960684204E-1,9.752791051E0
1.557576250E0,7.899073792E0,-5.104834442E0,4.743635559E-1,9.416991145E0
1.567635250E0,7.752229156E0,-5.632786560E0,3.318598938E-1,9.588298718E0
1.577694250E0,8.332123260E0,-6.247258759E0,4.906796265E-1,1.042560725E1
1.587753250E0,9.578431549E0,-6.826703796E0,4.842430115E-1,1.177220145E1
1.597812250E0,1.115555191E1,-7.054380341E0,2.872526550E-1,1.320201252E1
1.607871250E0,1.284104691E1,-6.946305084E0,4.041595459E-2,1.459949566E1
1.617930250E0,1.409468994E1,-6.774163055E0,1.438508606E-1,1.563874236E1
1.627989250E0,1.439526489E1,-6.812633057E0,5.289999390E-1,1.593472502E1
1.638048250E0,1.427132263E1,-7.094047852E0,8.604107666E-1,1.596046589E1
1.648107250E0,1.425395874E1,-7.670050049E0,1.197360077E0,1.623079415E1
1.658165250E0,1.399110535E1,-8.326435089E0,1.696272583E0,1.636941938E1
1.668224250E0,1.360760284E1,-8.690178680E0,2.281705170E0,1.630620247E1
1.678283250E0,1.335388046E1,-8.123457184E0,3.002456360E0,1.591638854E1
1.688342250E0,1.381267639E1,-6.948999481E0,3.367996216E0,1.582472816E1
1.698401250E0,1.467518280E1,-6.019881592E0,3.206332397E0,1.618272326E1
1.708460250E0,1.518951324E1,-5.359005890E0,2.819536743E0,1.635206544E1
1.718519250E0,1.516316803E1,-4.569996643E0,2.521656189E0,1.603637378E1
1.728578250E0,1.471829315E1,-3.745511169E0,2.205663300E0,1.534672466E1
1.738637250E0,1.415396667E1,-3.235821075E0,1.953886871E0,1.465001654E1
1.748695250E0,1.353650070E1,-3.018023987E0,1.672322388E0,1.396932290E1
1.758754250E0,1.313219147E1,-3.004102936E0,1.273701324E0,1.353149667E1
1.768813250E0,1.292457321E1,-3.286864929E0,9.243278503E-1,1.336796378E1
1.778872250E0,1.256681717E1,-3.579207001E0,8.193960571E-1,1.309225062E1
1.788931250E0,1.229558121E1,-3.873045959E0,6.646179199E-1,1.290827329E1
1.798990250E0,1.214170120E1,-4.323159943E0,5.610333252E-1,1.290059605E1
1.809049250E0,1.193543015E1,-4.700375519E0,7.469467163E-1,1.284935610E1
1.819108250E0,1.166763702E1,-4.868026886E0,9.407936096E-1,1.267740242E1
1.829167250E0,1.116213821E1,-4.932542725E0,1.126108246E0,1.225526120E1
1.839226250E0,1.065050217E1,-5.036875763E0,1.270258484E0,1.184976246E1
1.849284250E0,1.010279114E1,-5.286406860E0,1.359023895E0,1.148300624E1
1.859343250E0,9.398206329E0,-5.581143951E0,1.443897400E0,1.102543830E1
1.869402250E0,8.658744049E0,-5.783672791E0,1.487456818E0,1.051842418E1
1.879461250E0,7.961493988E0,-5.930218048E0,1.477727051E0,1.003675993E1
1.889520250E0,6.970105591E0,-6.019582214E0,1.453327789E0,9.323620737E0
1.899579250E0,6.092031555E0,-5.866450653E0,1.419647827E0,8.575750211E0
1.909638250E0,5.652844849E0,-5.585035858E0,1.331481171E0,8.057302435E0
1.919697250E0,5.480403442E0,-5.373974762E0,1.306183777E0,7.785919515E0
1.929756250E0,5.463937683E0,-5.305417328E0,1.367556152E0,7.737717871E0
1.939814250E0,5.620961151E0,-5.221441956E0,1.362017670E0,7.791903008E0
1.949873250E0,5.862858124E0,-5.213508453E0,1.249152374E0,7.944441920E0
1.959932250E0,6.045328674E0,-5.352868652E0,1.068029022E0,8.144930177E0
1.969991250E0,6.144871674E0,-5.706583099E0,8.264314270E-1,8.426596434E0
1.980050250E0,6.117927704E0,-6.155798950E0,6.700067139E-1,8.704700403E0
1.990109250E0,6.017636261E0,-6.538403320E0,5.863307190E-1,8.905416771E0
2.000168250E0,5.941295013E0,-6.701264648E0,4.638853455E-1,8.967782554E0
2.010227250E0,6.051316223E0,-6.592890015E0,2.215393066E-1,8.951743207E0
2.020286250E0,6.271059265E0,-6.352938995E0,-5.748046875E-2,8.926887598E0
2.030345250E0,6.586902466E0,-6.243217163E0,-2.884501648E-1,9.080101769E0
2.040403250E0,6.953490143E0,-6.195167084E0,-4.026626587E-1,9.321655302E0
2.050462250E0,7.303761749E0,-6.168672180E0,-3.706292725E-1,9.567383039E0
2.060521250E0,7.516768799E0,-6.108347626E0,-2.615061951E-1,9.689278063E0
2.070580250E0,7.578889618E0,-6.004912720E0,-2.176473999E-1,9.671913720E0
2.080639250E0,7.557933197E0,-5.876779175E0,-2.821632385E-1,9.578021913E0
2.090698250E0,7.567363586E0,-5.778433685E0,-4.481680298E-1,9.531848828E0
2.100757250E0,7.641309814E0,-5.841302948E0,-3.423381042E-1,9.624324973E0
2.110816250E0,7.577991486E0,-5.993985443E0,-3.128494263E-2,9.662028524E0
2.120875250E0,7.446714478E0,-6.044280853E0,2.588117981E-1,9.594470860E0
2.130934250E0,7.539820862E0,-6.120173035E0,3.192860413E-1,9.716345001E0
2.140992250E0,7.816744995E0,-6.070326691E0,1.886077881E-1,9.898784842E0
2.151051250E0,8.121361542E0,-5.797593842E0,-1.848655701E-1,9.980119384E0
2.161110250E0,8.513246613E0,-5.421725464E0,-6.601272583E-1,1.011465486E1
2.171169250E0,9.035061493E0,-5.186414795E0,-1.209035797E0,1.048775487E1
2.181228250E0,9.484277344E0,-5.307363281E0,-1.889221344E0,1.103126371E1
2.191287250E0,9.650431824E0,-5.546266479E0,-2.590962067E0,1.142825405E1
2.201346250E0,9.749076691E0,-5.947581940E0,-3.206033020E0,1.186157135E1
2.211405250E0,9.635762329E0,-6.565946045E0,-3.598516846E0,1.220282290E1
2.221464250E0,9.434730377E0,-7.101681976E0,-3.767665100E0,1.239529445E1
2.231523250E0,9.363029480E0,-7.459288330E0,-3.555107117E0,1.248783768E1
2.241581250E0,9.621392212E0,-7.893086243E0,-3.060385895E0,1.281553590E1
2.251640250E0,1.005040009E1,-8.555009766E0,-2.279010773E0,1.339375317E1
2.261699250E0,1.052596115E1,-9.196425934E0,-1.485361176E0,1.405618746E1
2.271758250E0,1.094194611E1,-9.803862762E0,-8.857081604E-1,1.471823320E1
2.281817250E0,1.126871658E1,-1.031220566E1,-3.893403625E-1,1.527995893E1
2.291876250E0,1.132065857E1,-1.074091415E1,-1.017883301E-2,1.560527638E1
2.301935250E0,1.118683685E1,-1.116752701E1,5.867797852E-2,1.580703708E1
2.311994250E0,1.080662750E1,-1.149295029E1,4.954696655E-2,1.577572690E1
2.322053250E0,9.922116852E0,-1.113354767E1,2.426454163E-1,1.491519907E1
2.332112250E0,8.852740631E0,-9.970017242E0,4.834945679E-1,1.334188995E1
2.342170250E0,8.130193176E0,-8.568481750E0,7.810757446E-1,1.183760955E1
2.352229250E0,7.800728302E0,-7.283104706E0,1.078806610E0,1.072654650E1
2.362288250E0,7.734865265E0,-6.167025604E0,1.497935028E0,1.000520639E1
2.372347250E0,7.833210754E0,-5.360652466E0,2.046095123E0,9.709906840E0
2.382406250E0,8.032296753E0,-4.895868988E0,2.356998596E0,9.697564986E0
2.392465250E0,8.144862671E0,-4.753664703E0,2.530338135E0,9.764155218E0
2.402524250E0,8.228688354E0,-4.903503113E0,2.661166077E0,9.941703058E0
2.412583250E0,8.183182983E0,-5.218897247E0,2.747835846E0,1.008721835E1
2.422642250E0,7.838749237E0,-5.508544922E0,2.727478180E0,9.961385144E0
2.432700250E0,7.365283813E0,-5.717061310E0,2.387086029E0,9.624467538E0
2.442759250E0,6.951993256E0,-5.954018555E0,1.977238312E0,9.364294876E0
2.452818250E0,6.666387177E0,-6.310277710E0,1.603315887E0,9.318312326E0
2.462877250E0,6.470444641E0,-6.747368774E0,1.355581055E0,9.446228836E0
2.472936250E0,6.482569427E0,-7.168592834E0,1.222058716E0,9.741963720E0
2.482995250E0,6.568790131E0,-7.525151367E0,1.078058167E0,1.004684609E1
2.493053750E0,6.702462158E0,-7.763455811E0,8.596623230E-1,1.029238866E1
2.503112750E0,6.902595978E0,-7.998317413E0,5.999523926E-1,1.058200622E1
2.513171750E0,7.211254120E0,-8.246800690E0,4.460723877E-1,1.096407261E1
2.523230750E0,7.603588257E0,-8.533604279E0,3.620970154E-1,1.143538677E1
2.533288750E0,7.752229156E0,-8.716523895E0,2.366578674E-1,1.166751270E1
2.543347750E0,7.686366119E0,-8.344248047E0,-3.158432007E-2,1.134494148E1
2.553406750E0,7.632777557E0,-7.737110596E0,-3.323089600E-1,1.087348163E1
2.563465750E0,7.749684448E0,-7.270680542E0,-4.421804810E-1,1.063559722E1
2.573524750E0,7.929161224E0,-6.885381775E0,-2.260299683E-1,1.050386450E1
2.583583750E0,8.020022278E0,-6.576723633E0,2.633024597E-1,1.037513273E1
2.593642750E0,8.109536133E0,-6.423592072E0,8.443940735E-1,1.037979348E1
2.603701750E0,8.237669678E0,-6.452032928E0,1.363364868E0,1.055209431E1
2.613760750E0,8.356672211E0,-6.470294952E0,1.858684845E0,1.073095506E1
2.623819750E0,8.362510071E0,-6.513105927E0,2.320923615E0,1.085075158E1
2.633877750E0,8.291407928E0,-6.560257874E0,2.741548920E0,1.092247771E1
2.643936750E0,8.003855896E0,-6.619534607E0,3.076402588E0,1.083255282E1
2.653995750E0,7.619604950E0,-6.583309937E0,3.224145355E0,1.057324277E1
2.664054750E0,7.314988403E0,-6.572232971E0,3.304977264E0,1.037430365E1
2.674113750E0,7.021149445E0,-6.583759003E0,3.352278900E0,1.019216346E1
2.684172750E0,6.784192200E0,-6.540498962E0,3.362607422E0,1.000552443E1
2.694231750E0,6.654711456E0,-6.525380402E0,3.226839752E0,9.862974639E0
2.704290750E0,6.657405853E0,-6.492149506E0,3.094514923E0,9.800259206E0
2.714349750E0,6.610852661E0,-6.373895416E0,2.975961456E0,9.653303179E0
2.724408750E0,6.461163940E0,-6.258485413E0,2.853815460E0,9.437136314E0
2.734467750E0,6.255940704E0,-6.208639069E0,2.599943390E0,9.189325264E0
2.744525750E0,6.122418365E0,-6.190826111E0,2.256557465E0,8.994575375E0
2.754584750E0,6.158044281E0,-6.213578796E0,1.944157104E0,8.961574509E0
2.764643750E0,5.973328400E0,-6.273154907E0,1.592089233E0,8.807262502E0
2.774702750E0,5.675148468E0,-6.388714600E0,1.058149567E0,8.610613502E0
2.784761750E0,5.455854492E0,-6.659202118E0,3.867956543E-1,8.617478283E0
2.794820750E0,5.229375458E0,-7.145241394E0,-3.023712158E-1,8.859586368E0
2.804879750E0,5.143903198E0,-7.585625610E0,-8.190966797E-1,9.201759364E0
2.814938750E0,5.150489502E0,-7.886350250E0,-1.124162292E0,9.486084716E0
2.824997750E0,5.239254913E0,-8.179440765E0,-1.383423157E0,9.811569850E0
2.835056750E0,5.354365540E0,-8.505163422E0,-1.682800598E0,1.019013508E1
2.845114750E0,5.392087097E0,-8.678802338E0,-1.953587494E0,1.040253418E1
2.855173750E0,5.550008698E0,-8.681496735E0,-2.148033142E0,1.052544671E1
2.865232750E0,5.867348785E0,-8.702902222E0,-2.225422211E0,1.072934261E1
2.875291750E0,6.380781097E0,-8.983568573E0,-2.287243652E0,1.125390400E1
2.885350750E0,6.873107300E0,-9.404942322E0,-2.212548981E0,1.185697757E1
2.895409750E0,7.170089722E0,-9.876910858E0,-2.080373840E0,1.238109486E1
2.905468750E0,7.472460938E0,-1.058808197E1,-1.995350647E0,1.311207750E1
2.915527750E0,7.644153900E0,-1.156689651E1,-1.866169281E0,1.398959512E1
2.925586750E0,7.125931549E0,-1.233614685E1,-1.656305695E0,1.434234179E1
2.935645750E0,5.772595825E0,-1.251622238E1,-1.302591248E0,1.384468957E1
2.945703750E0,4.068389740E0,-1.175984528E1,-6.399192810E-1,1.246014658E1
2.955762750E0,3.160078583E0,-1.023721161E1,1.960922241E-1,1.071564512E1
2.965821750E0,3.616329803E0,-8.119116211E0,9.092092896E-1,8.934458620E0
2.975880750E0,4.891827393E0,-5.987698517E0,1.361867981E0,7.850935815E0
2.985939750E0,6.683302002E0,-4.415966949E0,1.459914093E0,8.142397614E0
2.995998750E0,8.906927948E0,-3.571123810E0,1.345701599E0,9.690056942E0
3.006057750E0,1.115465378E1,-3.283721466E0,9.906399536E-1,1.167006834E1
3.016116750E0,1.282652710E1,-3.239263916E0,7.559280396E-2,1.322944982E1
3.026175750E0,1.339534424E1,-3.491938477E0,-1.219963074E0,1.389666116E1
3.036234750E0,1.306408310E1,-3.985312500E0,-2.856958923E0,1.395403874E1
3.046293750E0,1.233045868E1,-4.601131897E0,-4.433929596E0,1.388777727E1
3.056351750E0,1.118369339E1,-5.070406036E0,-5.448968811E0,1.343410869E1
3.066410750E0,1.005653732E1,-5.299280090E0,-5.463937683E0,1.261233235E1
3.076469750E0,9.211544495E0,-5.536836090E0,-4.656965790E0,1.171308824E1
3.086528750E0,8.692873077E0,-5.916746063E0,-3.061882782E0,1.095212548E1
3.096587750E0,8.404422913E0,-6.255042572E0,-1.406175842E0,1.057058241E1
3.106646750E0,8.044271851E0,-6.358028412E0,1.067280579E-1,1.025408337E1
3.116705750E0,7.515571289E0,-6.346652069E0,1.324445801E0,9.925621440E0
3.126764750E0,6.921606445E0,-6.179150391E0,2.121837616E0,9.518021339E0
3.136823750E0,6.168522491E0,-5.829028473E0,2.577639771E0,8.869750247E0
3.146882750E0,5.344186707E0,-5.485941925E0,2.772384796E0,8.145060332E0
3.156941750E0,4.702920227E0,-5.569318542E0,2.425855408E0,7.682417728E0
3.166999750E0,4.379442902E0,-6.004613342E0,1.929188232E0,7.678324606E0
3.177058750E0,4.119283905E0,-6.114784241E0,1.934876404E0,7.622521427E0
3.187117750E0,4.223766632E0,-5.684728546E0,2.369722137E0,7.468060405E0
3.197176750E0,4.649481354E0,-4.994214478E0,2.784210205E0,7.369645960E0
3.207235750E0,5.312602386E0,-4.399650879E0,2.869682465E0,7.470993871E0
3.217294750E0,5.954317932E0,-3.983216858E0,2.664309540E0,7.643197230E0
3.227353750E0,6.265371094E0,-3.699107666E0,2.326013031E0,7.638626126E0
3.237412750E0,6.433022461E0,-3.594325562E0,2.002086639E0,7.636183938E0
3.247471750E0,6.784940643E0,-3.656147003E0,1.753603363E0,7.904299792E0
3.257530750E0,7.259304199E0,-3.862567749E0,1.656605072E0,8.388162340E0
3.267589750E0,7.532785492E0,-4.264332275E0,1.468446350E0,8.779733578E0
3.277647750E0,7.486082611E0,-4.785099335E0,1.078806610E0,8.949996213E0
3.287706750E0,7.464377747E0,-5.196294250E0,6.524931335E-1,9.118341756E0
3.297765750E0,7.725285187E0,-5.205125885E0,2.998265076E-1,9.320046278E0
3.307824750E0,8.257578278E0,-4.953648834E0,6.735992432E-3,9.629448642E0
3.317883750E0,9.038055267E0,-4.646487579E0,-2.435435486E-1,1.016541211E1
3.327942750E0,9.911638641E0,-4.456831970E0,-4.899311829E-1,1.087860121E1
3.338001750E0,1.050829788E1,-4.427193604E0,-8.307723999E-1,1.143304642E1
3.348060750E0,1.077953384E1,-4.538262634E0,-1.244961090E0,1.176197712E1
3.358119750E0,1.084300186E1,-4.806804199E0,-1.372346191E0,1.193982370E1
3.368178750E0,1.084360062E1,-5.200485535E0,-1.378633118E0,1.210493095E1
3.378237750E0,1.079180832E1,-5.640720062E0,-1.167572021E0,1.223290947E1
3.388295750E0,1.066636917E1,-6.078260193E0,-8.024812317E-1,1.230287179E1
3.398354750E0,1.054826477E1,-6.483916626E0,-4.809498596E-1,1.239106038E1
3.408413750E0,1.048569489E1,-6.742878113E0,-1.577719116E-1,1.246760179E1
3.418472750E0,1.069481003E1,-6.763834534E0,1.487905884E-1,1.265506056E1
3.428531750E0,1.102053268E1,-6.584208069E0,2.938389587E-1,1.284096094E1
3.438590750E0,1.128218857E1,-6.098767548E0,1.757345581E-1,1.282628657E1
3.448649750E0,1.136317017E1,-5.486390991E0,-1.616638184E-1,1.261936042E1
3.458708750E0,1.143696671E1,-4.981940002E0,-5.493576050E-1,1.248702236E1
3.468767750E0,1.169488037E1,-4.941823425E0,-7.795788574E-1,1.272004673E1
3.478826750E0,1.208137665E1,-5.679040375E0,-6.622229004E-1,1.336599044E1
3.488886125E0,1.219543945E1,-6.999594269E0,-2.221380615E-1,1.406315785E1
3.498945125E0,1.198183365E1,-8.206833801E0,2.818638611E-1,1.452569812E1
3.509003125E0,1.140178986E1,-9.142238617E0,8.601113892E-1,1.463971074E1
3.519062125E0,1.064780777E1,-9.619745636E0,1.483714600E0,1.442625126E1
3.529121125E0,9.926457825E0,-9.471104736E0,2.116448822E0,1.388220968E1
3.539180125E0,9.362131348E0,-8.809929657E0,2.495011597E0,1.309539792E1
3.549239125E0,9.077573090E0,-7.892188110E0,2.565514984E0,1.229922085E1
3.559298125E0,9.105564880E0,-6.931635590E0,2.405497742E0,1.169381474E1
3.569357125E0,9.377549286E0,-6.111042023E0,2.145488434E0,1.139677085E1
3.579416125E0,9.685458984E0,-5.446573792E0,1.816622314E0,1.125936936E1
3.589475125E0,9.923464050E0,-5.066663818E0,1.532812500E0,1.124703228E1
3.599534125E0,1.008393036E1,-5.062023468E0,1.409618683E0,1.137087323E1
3.609593125E0,1.029588959E1,-5.487438812E0,1.477128296E0,1.176006952E1
3.619651125E0,1.039707916E1,-6.192921753E0,1.540596313E0,1.219938408E1
3.629710125E0,1.019320312E1,-7.009473724E0,1.512903900E0,1.246286444E1
3.639769125E0,9.945917358E0,-7.771239624E0,1.422192535E0,1.270181361E1
3.649828125E0,9.658814392E0,-8.366701355E0,1.388213196E0,1.285385245E1
3.659887125E0,9.317374420E0,-8.724906464E0,1.316661987E0,1.283242213E1
3.669946125E0,8.935668182E0,-8.816066895E0,1.291514282E0,1.261892272E1
3.680005125E0,8.653804321E0,-8.756490784E0,1.382375336E0,1.238851975E1
3.690064125E0,8.535849609E0,-8.638536072E0,1.569635925E0,1.224535793E1
3.700123125E0,8.421936493E0,-8.352331238E0,1.828447723E0,1.200140294E1
3.710182125E0,8.206384735E0,-7.912396088E0,2.035317535E0,1.157986527E1
3.720241125E0,7.949668579E0,-7.365732880E0,2.107916565E0,1.104058710E1
3.730300125E0,7.751780090E0,-6.858437805E0,2.157613220E0,1.057277440E1
3.740358125E0,7.543413391E0,-6.420149231E0,2.162852325E0,1.013900054E1
3.750417125E0,7.374564514E0,-6.103856964E0,2.078577576E0,9.796007164E0
3.760476125E0,7.303312683E0,-5.952072601E0,1.936373291E0,9.618476279E0
3.770535125E0,7.205865326E0,-5.982160034E0,1.683998108E0,9.515596849E0
3.780594125E0,6.893764343E0,-6.080804901E0,1.435514832E0,9.303809859E0
3.790653125E0,6.443949738E0,-6.051016846E0,1.225202179E0,8.924147773E0
3.800712125E0,5.986800385E0,-5.918841705E0,9.437873840E-1,8.471434389E0
3.810771125E0,5.518125000E0,-5.840105438E0,6.262976074E-1,8.059080825E0
3.820830125E0,5.031936035E0,-5.793552246E0,3.664379883E-1,7.682441324E0
3.830889125E0,4.587659912E0,-5.711373138E0,1.947450256E-1,7.328323971E0
3.840948125E0,4.241280212E0,-5.632337494E0,8.696914673E-2,7.051187639E0
3.851007125E0,4.088298340E0,-5.635630646E0,1.100212097E-1,6.963233499E0
3.861065125E0,4.049678650E0,-5.763614502E0,2.647993469E-1,7.049061497E0
3.871124125E0,3.966302032E0,-6.002368011E0,3.730242920E-1,7.204104433E0
3.881183125E0,3.879183197E0,-6.213728485E0,4.055067444E-1,7.336410545E0
3.891242125E0,3.808679810E0,-6.271658020E0,4.150868225E-1,7.349287944E0
3.901301125E0,3.833228760E0,-6.392456818E0,4.116439819E-1,7.465024960E0
3.911360125E0,3.867357788E0,-6.710245972E0,3.902384949E-1,7.754749728E0
3.921419125E0,3.818259888E0,-7.124135284E0,3.082090759E-1,8.088720848E0
3.931478125E0,3.782184906E0,-7.538473663E0,2.393522644E-1,8.437463917E0
3.941537125E0,3.824846191E0,-8.008496246E0,2.312690735E-1,8.878003486E0
3.951596125E0,3.842060394E0,-8.571625214E0,2.164498901E-1,9.395798925E0
3.961655125E0,3.868106232E0,-9.113498383E0,1.547781372E-1,9.901618800E0
3.971714125E0,4.061204681E0,-9.534722443E0,2.007325745E-1,1.036554915E1
3.981772125E0,4.575385437E0,-9.846074982E0,4.888833618E-1,1.086822669E1
3.991831125E0,5.236111450E0,-1.015143997E1,9.574090576E-1,1.146233958E1
4.001890125E0,5.656287689E0,-1.017284546E1,1.375639343E0,1.172061256E1
4.011949125E0,5.876779175E0,-9.909842377E0,1.849853210E0,1.166891024E1
4.022008125E0,6.138884125E0,-9.654922485E0,2.372566223E0,1.168471211E1
4.032067125E0,6.294560394E0,-9.445657654E0,2.730022888E0,1.167454342E1
4.042126125E0,6.506519623E0,-9.396709442E0,2.882555695E0,1.178736923E1
4.052185125E0,6.744075623E0,-9.631571045E0,2.879861298E0,1.210550775E1
4.062244125E0,6.861730957E0,-1.003438339E1,2.762056274E0,1.246600003E1
4.072303125E0,6.914571075E0,-1.060799057E1,2.388433228E0,1.288585932E1
4.082362125E0,7.112309875E0,-1.125269989E1,1.971101074E0,1.345709649E1
4.092421125E0,7.430697784E0,-1.186387894E1,1.618284760E0,1.409204522E1
4.102479125E0,7.738008728E0,-1.221175552E1,1.400637360E0,1.452465273E1
4.112538125E0,7.654033356E0,-1.197494797E1,1.399888916E0,1.428087163E1
4.122597125E0,7.153025208E0,-1.098176331E1,1.531315613E0,1.319506811E1
4.132656125E0,6.554420013E0,-9.202263794E0,1.714235229E0,1.142719052E1
4.142715125E0,6.333928528E0,-7.189698944E0,1.933080139E0,9.774825846E0
4.152774125E0,6.620283051E0,-5.505850525E0,2.037712555E0,8.848435462E0
4.162833125E0,7.321874084E0,-4.331542511E0,2.038311310E0,8.747960541E0
4.172892125E0,8.308472443E0,-3.608096924E0,1.882335663E0,9.251608795E0
4.182951125E0,9.215137024E0,-3.330873413E0,1.635498962E0,9.934199762E0
4.193010125E0,9.756411438E0,-3.603755951E0,8.252339172E-1,1.043339025E1
4.203069125E0,9.927505646E0,-4.187242584E0,-2.986289978E-1,1.077856893E1
4.213128125E0,9.547296295E0,-4.806205444E0,-1.748064880E0,1.083079905E1
4.223187125E0,8.708740082E0,-5.497018890E0,-3.032394104E0,1.073567811E1
4.233245125E0,8.058043213E0,-6.356681213E0,-3.594175873E0,1.087462904E1
4.243304125E0,7.709418182E0,-7.002737732E0,-3.520079956E0,1.099383588E1
4.253363125E0,7.376360779E0,-7.285350037E0,-3.021317139E0,1.079886016E1
4.263422125E0,7.008425903E0,-7.292385406E0,-2.229613495E0,1.035703118E1
4.273481125E0,6.747967529E0,-7.121740265E0,-1.285676422E0,9.894807428E0
4.283540125E0,6.664291534E0,-6.753356323E0,-4.342469788E-1,9.497851006E0
4.293599125E0,6.895111542E0,-6.310277710E0,3.631448364E-1,9.353825000E0
4.303658125E0,7.379504242E0,-5.884712677E0,1.213077393E0,9.516222092E0
4.313717125E0,7.852370911E0,-5.459896088E0,1.993404694E0,9.769537168E0
4.323776125E0,8.292605438E0,-4.978946228E0,2.674638062E0,1.003548201E1
4.333835125E0,8.593629456E0,-4.358636169E0,3.151396637E0,1.013802137E1
4.343894125E0,8.801996155E0,-3.767216034E0,3.365900574E0,1.014871123E1
4.353953125E0,9.076974335E0,-3.472928009E0,3.427123260E0,1.030523488E1
4.364011125E0,9.368867340E0,-3.400328979E0,3.371139679E0,1.052152532E1
4.374070125E0,9.546996918E0,-3.442690887E0,3.334016876E0,1.068236581E1
4.384129125E0,9.337732086E0,-3.523373108E0,3.227737885E0,1.048931315E1
4.394188125E0,8.938063202E0,-3.582649841E0,3.007695465E0,1.008814084E1
4.404247125E0,8.637039185E0,-3.875440979E0,2.660417633E0,9.833377377E0
4.414306125E0,8.339757385E0,-4.456382904E0,2.246528320E0,9.718939825E0
4.424365125E0,8.051007843E0,-5.096152496E0,1.854942627E0,9.707229765E0
4.434424125E0,7.621850281E0,-5.627697144E0,1.510658569E0,9.594043264E0
4.444483125E0,7.154971161E0,-5.989345093E0,1.185983734E0,9.405978119E0
4.454542125E0,6.872957611E0,-6.387517090E0,8.996292114E-1,9.425882113E0
4.464601125E0,6.769522705E0,-6.796915741E0,6.665638733E-1,9.616070333E0
4.474660125E0,6.642287292E0,-6.976242828E0,5.192701721E-1,9.646635993E0
4.484719125E0,6.481820984E0,-6.797963562E0,4.062551880E-1,9.401667678E0
4.494776333E0,6.454877014E0,-6.434070282E0,3.474275208E-1,9.120493602E0
4.504835333E0,6.668333130E0,-6.191724243E0,3.836521912E-1,9.107760693E0
4.514894333E0,7.114255829E0,-6.222709808E0,4.290078735E-1,9.461437582E0
4.524953333E0,7.589367828E0,-6.259383545E0,4.212240601E-1,9.846614449E0
4.535012333E0,7.895181885E0,-6.078409882E0,3.641926575E-1,9.970636889E0
4.545071333E0,8.075706482E0,-5.888454895E0,2.604583740E-1,9.997938527E0
4.555130333E0,8.233478394E0,-5.906866608E0,1.541793823E-1,1.013434807E1
4.565189333E0,8.490493927E0,-6.132447510E0,1.176553345E-1,1.047421798E1
4.575248333E0,8.682544556E0,-6.553821259E0,2.260299683E-2,1.087840356E1
4.585307333E0,8.856782227E0,-6.932683411E0,-8.936416626E-2,1.124778541E1
4.595366333E0,9.137448578E0,-7.098688202E0,-6.526428223E-2,1.157102416E1
4.605425333E0,9.551337891E0,-7.148384857E0,1.796264648E-3,1.193010749E1
4.615484333E0,9.986782379E0,-7.281907196E0,5.269042969E-2,1.235980465E1
4.625542333E0,1.038944504E1,-7.344926147E0,3.143463135E-3,1.272354189E1
4.635601333E0,1.063268921E1,-7.374414825E0,-1.290316772E-1,1.294035251E1
4.645660333E0,1.076905563E1,-7.582482147E0,-2.814147949E-1,1.317367789E1
4.655719333E0,1.081216599E1,-7.962990875E0,-2.345622253E-1,1.343008475E1
4.665778333E0,1.069615723E1,-8.521329803E0,1.377136230E-2,1.367556327E1
4.675837333E0,1.049377808E1,-9.234446869E0,3.400927734E-1,1.398249085E1
4.685896333E0,1.012973511E1,-9.992171173E0,7.372169495E-1,1.424775445E1
4.695955333E0,9.361233215E0,-1.036908737E1,1.209484863E0,1.402189409E1
4.706014333E0,8.578061829E0,-1.036474640E1,1.684596863E0,1.355909212E1
4.716073333E0,8.005053406E0,-9.889335022E0,2.132914581E0,1.290074230E1
4.726132333E0,7.659272461E0,-8.877588959E0,2.468067627E0,1.198196137E1
4.736191333E0,7.642806702E0,-7.753276978E0,2.527494049E0,1.117649428E1
4.746250333E0,8.091872864E0,-6.878346405E0,2.310146027E0,1.086861676E1
4.756309333E0,8.827892303E0,-6.416107635E0,2.034569092E0,1.110124277E1
4.766367333E0,9.590107269E0,-6.196364594E0,1.660646667E0,1.153788711E1
4.776426333E0,1.006716522E1,-6.093977509E0,1.187480621E0,1.182770002E1
4.786485333E0,1.011865814E1,-6.356381836E0,6.605763245E-1,1.196775642E1
4.796544333E0,9.958940277E0,-6.920408936E0,1.633103943E-1,1.212844679E1
4.806603333E0,9.733658752E0,-7.588469696E0,-1.157093811E-1,1.234270528E1
4.816662333E0,9.283395081E0,-8.077353058E0,-1.344204712E-1,1.230622304E1
4.826721333E0,8.782686310E0,-8.302933960E0,1.437011719E-2,1.208612832E1
4.836780333E0,8.395291901E0,-8.311466217E0,2.785707092E-1,1.181689462E1
4.846839333E0,8.050558777E0,-8.170609131E0,6.105802917E-1,1.148665132E1
4.856898333E0,7.723339233E0,-7.894583130E0,9.574090576E-1,1.108562329E1
4.866957333E0,7.336992645E0,-7.477700043E0,1.227896576E0,1.054775753E1
4.877016333E0,6.953041077E0,-6.960974579E0,1.466350708E0,9.947368079E0
4.887075333E0,6.609505463E0,-6.430627441E0,1.627565460E0,9.364160458E0
4.897134333E0,6.323300629E0,-5.908064117E0,1.787133636E0,8.836469832E0
4.907192333E0,6.083499298E0,-5.516328735E0,1.879641266E0,8.424482044E0
4.917251333E0,5.914051666E0,-5.306614838E0,1.882635040E0,8.165811830E0
4.927310333E0,5.782026215E0,-5.328469391E0,1.912423096E0,8.092081024E0
4.937369333E0,5.714067535E0,-5.569767609E0,1.971699829E0,8.219518187E0
4.947428333E0,5.582341461E0,-5.648653564E0,1.943708038E0,8.176051872E0
4.957487333E0,5.463638306E0,-5.578299866E0,1.777852936E0,8.008091782E0
4.967546333E0,5.347330170E0,-5.577252045E0,1.526675262E0,7.875939161E0
4.977605333E0,5.214855652E0,-5.642815704E0,1.294508057E0,7.791780262E0
4.987664333E0,5.024451599E0,-5.679938507E0,1.092577972E0,7.661627891E0
4.997723333E0,4.754263458E0,-5.786367188E0,8.173004150E-1,7.533461769E0
5.007782333E0,4.639601898E0,-6.131250000E0,5.266049194E-1,7.706844041E0
5.017841333E0,4.796026611E0,-6.777306519E0,4.183799744E-1,8.313170076E0
5.027900333E0,4.986580353E0,-7.399113464E0,4.258644104E-1,8.932761285E0
5.037959333E0,5.101840668E0,-7.830815735E0,4.772076416E-1,9.358321452E0
5.048018333E0,5.062622223E0,-7.952662354E0,5.777984619E-1,9.445042792E0
5.058076333E0,4.830455017E0,-7.781268768E0,8.026309204E-1,9.193783536E0
5.068135333E0,4.482578430E0,-7.531438293E0,8.550219727E-1,8.806085096E0
5.078194333E0,4.111649780E0,-7.333400116E0,7.481442261E-1,8.440624441E0
5.088253333E0,3.787124634E0,-7.222331085E0,6.942562866E-1,8.184520211E0
5.098312333E0,3.542383575E0,-7.285499725E0,7.174580383E-1,8.132756831E0
5.108371333E0,3.475921783E0,-7.400909729E0,8.891510010E-1,8.224724103E0
5.118430333E0,3.616030426E0,-7.500602417E0,1.218166809E0,8.415381336E0
5.128489333E0,3.822750549E0,-7.704179077E0,1.640289001E0,8.755475145E0
5.138548333E0,4.095333710E0,-7.943231964E0,1.969005432E0,9.151157010E0
5.148607333E0,4.456981659E0,-8.306975555E0,2.267035675E0,9.695874336E0
5.158666333E0,4.801714783E0,-8.649613037E0,2.499352570E0,1.020387347E1
5.168725333E0,5.278323669E0,-8.781638489E0,2.450404358E0,1.053481641E1
5.178784333E0,5.792055359E0,-8.796607361E0,2.092049561E0,1.073801088E1
5.188843333E0,6.274651794E0,-8.791068878E0,1.493294678E0,1.090339746E1
5.198902333E0,6.658902740E0,-8.738528137E0,9.812095642E-1,1.103021450E1
5.208960333E0,6.982679443E0,-8.612789612E0,7.321275330E-1,1.111188408E1
5.219019333E0,7.341782684E0,-8.340954895E0,7.337741089E-1,1.113605523E1
5.229078333E0,7.798183594E0,-7.909402313E0,7.108717346E-1,1.112994389E1
5.239137333E0,8.123008118E0,-7.440876617E0,4.029620361E-1,1.102326105E1
5.249196333E0,8.562194824E0,-7.477550354E0,-2.790197754E-1,1.137113853E1
5.259255333E0,9.206155701E0,-7.946824493E0,-1.042731628E0,1.220625297E1
5.269314333E0,9.772877197E0,-8.482111359E0,-1.766775970E0,1.306050685E1
5.279373333E0,1.008467880E1,-9.037606201E0,-2.359243927E0,1.374573040E1
5.289432333E0,1.040216858E1,-9.870324554E0,-2.670746155E0,1.458633960E1
5.299491333E0,1.018377274E1,-1.029214737E1,-2.203417969E0,1.464556504E1
5.309550333E0,9.010662231E0,-9.523795166E0,-8.123606873E-1,1.313600541E1
5.319609333E0,7.865244141E0,-8.168513489E0,9.295669556E-1,1.137764355E1
5.329668333E0,7.341034241E0,-7.011719055E0,2.336790619E0,1.041708108E1
5.339727333E0,7.163802795E0,-5.838009796E0,3.320993958E0,9.819950597E0
5.349786333E0,7.354057159E0,-4.913382568E0,3.837270355E0,9.640960987E0
5.359844333E0,8.028404846E0,-4.516707458E0,3.823648682E0,9.973776611E0
5.369903333E0,9.055419159E0,-4.537663879E0,3.438499603E0,1.069646152E1
5.379962333E0,9.994416504E0,-4.809947662E0,2.694097595E0,1.141411931E1
5.390021333E0,1.049317932E1,-5.189857635E0,1.673968964E0,1.182554889E1
5.400080333E0,1.065409470E1,-5.446424103E0,5.013075256E-1,1.197600011E1
5.410139333E0,1.057431061E1,-5.501060486E0,-6.767427063E-1,1.193883127E1
5.420198333E0,1.016910324E1,-5.363496552E0,-1.909279633E0,1.165431700E1
5.430257333E0,9.592202911E0,-5.248236237E0,-2.919828186E0,1.131723186E1
5.440316333E0,9.037306824E0,-5.267995148E0,-3.507057037E0,1.103286620E1
5.450375333E0,8.257278900E0,-5.269342346E0,-3.475622406E0,1.039367956E1
5.460434333E0,7.306755524E0,-5.290448456E0,-2.499801636E0,9.360904303E0
5.470493333E0,6.462062073E0,-5.292244720E0,-1.030606842E0,8.415952167E0
5.480552333E0,5.962850189E0,-5.240452423E0,4.709207153E-1,7.952338668E0
5.490612458E0,5.658083954E0,-5.083279266E0,1.690434723E0,7.791739965E0
5.500671458E0,5.522465973E0,-4.803810425E0,2.531535645E0,7.744862668E0
5.510729458E0,5.541476440E0,-4.403393097E0,3.079246674E0,7.718781768E0
5.520788458E0,5.627397766E0,-4.020489349E0,3.361110535E0,7.689538624E0
5.530847458E0,5.587730255E0,-3.618275757E0,3.053649902E0,7.323894223E0
5.540906458E0,5.185965729E0,-3.455713806E0,2.261646881E0,6.629573521E0
5.550965458E0,4.572990417E0,-3.525618439E0,1.313668213E0,5.921819898E0
5.561024458E0,4.088148651E0,-3.685186615E0,4.917274475E-1,5.525880533E0
5.571083458E0,3.767665100E0,-3.849993896E0,-1.407073975E-1,5.388650284E0
5.581142458E0,3.614234161E0,-4.051474915E0,-5.936654663E-1,5.461645928E0
5.591201458E0,3.666475525E0,-4.286486206E0,-7.964936829E-1,5.696613815E0
5.601260458E0,3.884422302E0,-4.532724152E0,-6.427633667E-1,6.003954497E0
5.611319458E0,4.182153168E0,-4.651726685E0,-2.405497742E-1,6.259938535E0
5.621378458E0,4.599335632E0,-4.680766296E0,1.333726501E-1,6.563630828E0
5.631437458E0,5.206772461E0,-4.700824585E0,3.399430847E-1,7.023089957E0
5.641496458E0,6.083499298E0,-4.730612640E0,2.372566223E-1,7.709990296E0
5.651555458E0,7.174281006E0,-4.695136414E0,-7.634124756E-2,8.574406211E0
5.661614458E0,8.357121277E0,-4.555925903E0,-5.034031677E-1,9.531597538E0
5.671673458E0,9.326355743E0,-4.519701233E0,-1.058448944E0,1.041772167E1
5.681731458E0,1.019784348E1,-5.052892456E0,-1.474284210E0,1.147611640E1
5.691790458E0,1.076187057E1,-5.809269562E0,-1.787882080E0,1.235969229E1
5.701849458E0,1.033675461E1,-6.274951172E0,-1.617835693E0,1.220003690E1
5.711908458E0,9.509724426E0,-6.552773438E0,-6.972500610E-1,1.156978202E1
5.721967458E0,9.082363129E0,-7.076683960E0,5.066963196E-1,1.152499532E1
5.732026458E0,9.221723328E0,-7.701185303E0,1.858684845E0,1.215743170E1
5.742085458E0,9.192683716E0,-7.831115112E0,4.100722504E0,1.275334163E1
5.752144458E0,9.305399323E0,-7.780969391E0,3.770359497E0,1.270234435E1
5.762203458E0,9.418863373E0,-7.649991760E0,2.872825928E0,1.246958259E1
5.772262458E0,9.011560364E0,-7.214098206E0,2.053429871E0,1.172467515E1
5.782321458E0,9.344917145E0,-6.927743683E0,1.018781433E0,1.167728670E1
5.792380458E0,1.038345749E1,-6.808441772E0,4.445755005E-2,1.241664388E1
5.802439458E0,1.134760254E1,-6.630461884E0,-6.448590088E-1,1.315853150E1
5.812498458E0,1.170011948E1,-6.255192261E0,-1.268312531E0,1.332774710E1
5.822557458E0,1.192225754E1,-6.080056458E0,-1.924098816E0,1.352070514E1
5.832616458E0,1.236608459E1,-6.386169891E0,-2.391427002E0,1.412169031E1
5.842675458E0,1.254645950E1,-7.002138977E0,-2.636916504E0,1.460811162E1
5.852733458E0,1.220936050E1,-7.641908569E0,-2.713557129E0,1.465710213E1
5.862792458E0,1.160701309E1,-8.036338348E0,-2.514321442E0,1.433971057E1
5.872851458E0,1.122830063E1,-8.287815399E0,-1.975891113E0,1.409491982E1
5.882910458E0,1.106304428E1,-8.397986298E0,-1.222807159E0,1.394318400E1
5.892969458E0,1.102666992E1,-7.971074066E0,-4.572990417E-1,1.361376486E1
5.903028458E0,1.101080292E1,-7.018305359E0,-8.008346558E-2,1.305759566E1
5.913087458E0,1.078267731E1,-5.892795868E0,-5.313949585E-2,1.228796146E1
5.923146458E0,1.042911255E1,-4.704417114E0,-2.493814087E-1,1.144378084E1
5.933205458E0,1.032208511E1,-3.750750275E0,-5.366340637E-1,1.099552385E1
5.943264458E0,1.032343231E1,-3.361260223E0,-8.286767578E-1,1.088843562E1
5.953323458E0,1.026655060E1,-3.394042053E0,-1.148711243E0,1.087387328E1
5.963382458E0,1.008243347E1,-3.676654358E0,-1.255588989E0,1.080508009E1
5.973441458E0,9.703571320E0,-4.177812195E0,-1.001866608E0,1.061212268E1
5.983500458E0,9.200617218E0,-4.832101593E0,-5.086422729E-1,1.040477198E1
5.993559458E0,8.773704987E0,-5.567073212E0,4.146377563E-2,1.039095388E1
6.003618458E0,8.424780579E0,-6.177653503E0,5.866300964E-1,1.046348247E1
6.013677458E0,8.280780029E0,-6.698719940E0,1.112935638E0,1.070900520E1
6.023735458E0,8.562943268E0,-7.291487274E0,1.632355499E0,1.136461036E1
6.033794458E0,8.992998962E0,-7.815248108E0,2.043849792E0,1.208840169E1
6.043853458E0,9.219477997E0,-8.232131195E0,2.126178589E0,1.254142711E1
6.053912458E0,9.398954773E0,-8.564889221E0,1.919608154E0,1.286011562E1
6.063971458E0,9.309889984E0,-8.782536621E0,1.480271759E0,1.288402909E1
6.074030458E0,8.750054169E0,-9.003776550E0,9.446855164E-1,1.259062631E1
6.084089458E0,8.126450958E0,-9.234746246E0,5.224136353E-1,1.231229708E1
6.094148458E0,7.591762848E0,-9.361831970E0,3.451821899E-1,1.205810564E1
6.104207458E0,6.883884888E0,-9.121282196E0,4.061054993E-1,1.143462206E1
6.114266458E0,6.118227081E0,-8.521030426E0,5.182223511E-1,1.050281946E1
6.124325458E0,5.668861542E0,-7.820636902E0,7.691006470E-1,9.689678454E0
6.134384458E0,5.404511261E0,-7.243137817E0,1.036744080E0,9.096517229E0
6.144443458E0,5.109474792E0,-6.675518188E0,1.289867706E0,8.504882976E0
6.154502458E0,4.839586029E0,-6.189628601E0,1.556912384E0,8.009810942E0
6.164561458E0,4.616100769E0,-5.895190887E0,1.713337097E0,7.680962565E0
6.174620458E0,4.516408081E0,-5.818849640E0,1.797312469E0,7.582037009E0
6.184679458E0,4.477189636E0,-5.744454346E0,1.776805115E0,7.496733901E0
6.194738458E0,4.405788116E0,-5.500910797E0,1.732646942E0,7.257620406E0
6.204797458E0,4.420607300E0,-5.275329895E0,1.645827484E0,7.076695734E0
6.214855458E0,4.371210022E0,-5.162165222E0,1.443747711E0,6.916634607E0
6.224914458E0,4.176165619E0,-4.983586578E0,1.184935913E0,6.609127596E0
6.234973458E0,4.117188263E0,-4.903054047E0,9.692344666E-1,6.475383666E0
6.245032458E0,4.330943756E0,-5.066514130E0,7.782316589E-1,6.710609790E0
6.255091458E0,4.639003143E0,-5.283562775E0,5.403762817E-1,7.051836093E0
6.265150458E0,4.896018677E0,-5.372777252E0,2.586621094E-1,7.273557615E0
6.275209458E0,5.001698914E0,-5.380112000E0,-2.371069336E-1,7.349749441E0
6.285268458E0,4.935835876E0,-5.486091614E0,-8.412506104E-1,7.427474644E0
6.295327458E0,4.732259216E0,-5.616470490E0,-1.387165375E0,7.474171916E0
6.305386458E0,4.522695007E0,-5.973627777E0,-1.516795807E0,7.644584257E0
6.315445458E0,4.521347809E0,-6.642736359E0,-1.218017120E0,8.127244185E0
6.325504458E0,4.751569061E0,-7.346722412E0,-5.998027039E-1,8.769920298E0
6.335563458E0,5.050347748E0,-8.039481812E0,7.918533325E-2,9.494501066E0
6.345622458E0,5.323529663E0,-8.666976929E0,5.635780334E-1,1.018695624E1
6.355681458E0,5.826932831E0,-9.346863098E0,1.008153534E0,1.106044165E1
6.365740458E0,6.752158813E0,-1.002465363E1,1.629960480E0,1.219598705E1
6.375799458E0,7.139702911E0,-1.004875351E1,2.133363647E0,1.251015768E1
6.385858458E0,7.532486115E0,-1.003123993E1,2.337539063E0,1.276041576E1
6.395917458E0,7.770341492E0,-9.879305878E0,2.147584076E0,1.275111795E1
6.405975458E0,7.357649689E0,-9.764195251E0,1.906585236E0,1.237374580E1
6.416034458E0,6.689738617E0,-9.971214752E0,1.769919434E0,1.213714716E1
6.426093458E0,6.234984283E0,-1.044752426E1,1.823058929E0,1.230241180E1
6.436152458E0,5.903573456E0,-1.110765152E1,1.958976288E0,1.273065945E1
6.446211458E0,5.702092438E0,-1.159922928E1,2.273023224E0,1.312336133E1
6.456270458E0,5.937552795E0,-1.177825699E1,2.566263428E0,1.343754363E1
6.466329458E0,6.732699280E0,-1.178214890E1,2.760110321E0,1.384797751E1
6.476388458E0,7.587272186E0,-1.179517181E1,2.832709351E0,1.430793555E1
6.486447708E0,8.246501312E0,-1.160865967E1,2.681374054E0,1.448984230E1
6.496506708E0,8.662935333E0,-1.083402054E1,2.527643738E0,1.410005080E1
6.506565708E0,8.447682953E0,-9.420659637E0,2.313588867E0,1.286331484E1
6.516624708E0,7.790848846E0,-7.624095612E0,2.129621429E0,1.110672981E1
6.526683708E0,7.310946808E0,-5.991141357E0,1.924098816E0,9.646028937E0
6.536742708E0,7.243736572E0,-4.803061981E0,1.609602814E0,8.839227633E0
6.546801708E0,7.509134674E0,-4.219874725E0,9.842033386E-1,8.669665649E0
6.556860708E0,7.982151031E0,-4.200265503E0,7.514373779E-2,9.020122614E0
6.566919708E0,8.548722839E0,-4.589605865E0,-8.870553589E-1,9.743305979E0
6.576978708E0,9.040300598E0,-5.141208801E0,-1.730102234E0,1.054287990E1
6.587037708E0,9.377698975E0,-5.699996796E0,-2.552192688E0,1.126698225E1
6.597095708E0,9.369765472E0,-6.124813385E0,-3.316054230E0,1.167484731E1
6.607154708E0,8.892408142E0,-6.291117554E0,-3.848047943E0,1.155251296E1
6.617213708E0,8.146808624E0,-6.258784790E0,-4.025728455E0,1.103400958E1
6.627272708E0,7.455695801E0,-6.168971558E0,-3.774550781E0,1.038705173E1
6.637331708E0,6.907984772E0,-6.090085602E0,-3.132685547E0,9.727441338E0
6.647390708E0,6.518794098E0,-5.921236725E0,-2.273921356E0,9.095407587E0
6.657449708E0,6.276448059E0,-5.582042084E0,-1.172362061E0,8.481003883E0
6.667508708E0,6.160139923E0,-5.256918182E0,-7.035369873E-2,8.098608664E0
6.677567708E0,6.257138214E0,-5.041965179E0,8.925938416E-1,8.085166372E0
6.687626708E0,6.510710907E0,-4.790637817E0,1.616937561E0,8.243424912E0
6.697685708E0,6.823410645E0,-4.478087769E0,2.257006531E0,8.467956150E0
6.707744708E0,7.122488708E0,-4.169579315E0,2.970722351E0,8.771569321E0
6.717803708E0,7.261100464E0,-3.886967010E0,3.327879639E0,8.882954203E0
6.727862708E0,7.174131317E0,-3.618874512E0,3.131637726E0,8.623895160E0
6.737921708E0,6.940317535E0,-3.519481201E0,2.417173462E0,8.148465068E0
6.747980708E0,6.619085541E0,-3.520529022E0,1.276395721E0,7.604972323E0
6.758039708E0,6.403833160E0,-3.623963928E0,2.176473999E-1,7.361356131E0
6.768098708E0,6.186036072E0,-3.693868561E0,-7.511380005E-1,7.244026196E0
6.778157708E0,5.903124390E0,-3.912563782E0,-1.297801208E0,7.199952839E0
6.788216708E0,5.608686676E0,-4.239334259E0,-1.466500397E0,7.181917892E0
6.798275708E0,5.461093597E0,-4.599335632E0,-1.282083893E0,7.254045123E0
6.808333708E0,5.647605743E0,-5.047952728E0,-8.345146179E-1,7.620609689E0
6.818392708E0,6.142027588E0,-5.481750641E0,-2.176473999E-1,8.235378763E0
6.828451708E0,6.938670959E0,-5.801485748E0,4.013154602E-1,9.053366538E0
6.838510708E0,7.737859039E0,-5.954168243E0,8.105644226E-1,9.797121856E0
6.848569708E0,8.363557892E0,-6.133345642E0,9.997709656E-1,1.041952837E1
6.858628708E0,8.797355804E0,-6.386319580E0,1.015787659E0,1.091835022E1
6.868687708E0,8.973689117E0,-6.456822968E0,8.861572266E-1,1.109066877E1
6.878746708E0,8.856632538E0,-6.269861755E0,7.393125916E-1,1.087647413E1
6.888805708E0,8.741970978E0,-6.040239258E0,5.806425476E-1,1.064160198E1
6.898864708E0,8.765172729E0,-5.889203339E0,4.046086121E-1,1.056762400E1
6.908923708E0,8.812923431E0,-5.888155518E0,4.016148376E-1,1.060656821E1
6.918982708E0,8.934320984E0,-5.911057892E0,5.813909912E-1,1.072850000E1
6.929041708E0,9.117539978E0,-5.984105988E0,7.024891663E-1,1.092852006E1
6.939100708E0,9.268276520E0,-6.158792725E0,6.797364807E-1,1.114870930E1
6.949159708E0,9.456135864E0,-6.326144714E0,5.661227417E-1,1.139118551E1
6.959218708E0,9.779164124E0,-6.337521057E0,3.953279114E-1,1.165986742E1
6.969277708E0,1.005953110E1,-6.361620941E0,2.236349487E-1,1.190438572E1
6.979336708E0,1.022463776E1,-6.521787872E0,-9.370513916E-2,1.212788996E1
6.989395708E0,1.033406021E1,-6.574627991E0,-5.769003296E-1,1.226178403E1
6.999454708E0,1.034678375E1,-6.605912933E0,-9.874964905E-1,1.231540373E1
7.009513708E0,1.036429733E1,-6.698270874E0,-1.295406189E0,1.240820572E1
7.019571708E0,1.034483780E1,-6.880292358E0,-1.529669037E0,1.251774658E1
7.029630708E0,1.045126648E1,-7.213499451E0,-1.539548492E0,1.279194101E1
7.039689708E0,1.062071411E1,-7.788603516E0,-1.057700500E0,1.321289686E1
7.049748708E0,1.073717194E1,-8.513246613E0,-2.839595032E-1,1.370557777E1
7.059807708E0,1.089314758E1,-9.231453094E0,3.743714905E-1,1.428357604E1
7.069866708E0,1.076845688E1,-9.683962097E0,8.978329468E-1,1.451016504E1
7.079925708E0,1.055994049E1,-9.897268524E0,1.096769257E0,1.451451584E1
7.089984708E0,1.027343628E1,-9.744885406E0,1.072070618E0,1.420054999E1
7.100043708E0,9.696535950E0,-8.876840515E0,1.089135132E0,1.319118351E1
7.110102708E0,9.002129974E0,-7.632328491E0,1.095871124E0,1.185292014E1
7.120161708E0,8.595725098E0,-6.397246857E0,1.064137115E0,1.076771309E1
7.130220708E0,8.464747467E0,-5.290149078E0,1.006506958E0,1.003248141E1
7.140279708E0,8.554411011E0,-4.427492981E0,9.166937256E-1,9.675792951E0
7.150338708E0,8.879085846E0,-3.966601410E0,1.004261627E0,9.776534847E0
7.160397708E0,9.330696716E0,-3.978726196E0,1.071172485E0,1.019997911E1
7.170456708E0,9.559720459E0,-4.173770599E0,1.000369720E0,1.047899594E1
7.180515708E0,9.459578705E0,-4.543202362E0,6.607260132E-1,1.051479319E1
7.190574708E0,9.290280762E0,-5.265600128E0,1.683998108E-1,1.068008520E1
7.200633708E0,9.155261536E0,-6.289770355E0,-1.426533508E-1,1.110857214E1
7.210692708E0,9.022038574E0,-7.331304474E0,-2.935395813E-1,1.162890239E1
7.220751708E0,8.890761566E0,-8.201445007E0,-3.240760803E-1,1.210018044E1
7.230810708E0,8.716823273E0,-8.726702728E0,-2.230361938E-1,1.233645385E1
7.240869708E0,8.548273773E0,-8.812025299E0,5.239105225E-3,1.227700297E1
7.250928708E0,8.374784546E0,-8.602161713E0,3.121009827E-1,1.200964651E1
7.260986708E0,8.108787689E0,-8.245154114E0,6.053411865E-1,1.158021771E1
7.271045708E0,7.839497681E0,-7.942633209E0,1.062191162E0,1.121032543E1
7.281104708E0,7.613467712E0,-7.716004486E0,1.497186584E0,1.094272286E1
7.291163708E0,7.254364471E0,-7.407046967E0,1.948348389E0,1.054922794E1
7.301222708E0,6.821764069E0,-7.134164429E0,2.361189880E0,1.014928494E1
7.311281708E0,6.489604797E0,-7.056026917E0,2.686613159E0,9.955921682E0
7.321340708E0,6.210435333E0,-7.051087189E0,3.013832703E0,9.867650436E0
7.331399708E0,5.832770691E0,-6.867419128E0,3.179987183E0,9.554840548E0
7.341458708E0,5.550457764E0,-6.483916626E0,3.089575195E0,9.077126808E0
7.351517708E0,5.332061920E0,-6.166576538E0,2.840642853E0,8.632890729E0
7.361576708E0,5.168003082E0,-5.918841705E0,2.407892761E0,8.218204825E0
7.371635708E0,5.007686462E0,-5.697601776E0,1.954934692E0,7.833349179E0
7.381694708E0,4.921316071E0,-5.497168579E0,1.622176666E0,7.554447127E0
7.391753708E0,4.891528015E0,-5.368585968E0,1.387464752E0,7.394174738E0
7.401812708E0,4.875960388E0,-5.419480133E0,1.238524475E0,7.394572164E0
7.411871708E0,4.825964355E0,-5.599705353E0,1.162332916E0,7.483157743E0
7.421930708E0,4.712051239E0,-5.802533569E0,1.158291321E0,7.564024160E0
7.431989708E0,4.553979950E0,-5.968688049E0,1.096170502E0,7.587197123E0
7.442048708E0,4.340673523E0,-6.121220856E0,9.915380859E-1,7.569276001E0
7.452107708E0,4.149820404E0,-6.229894867E0,9.131011963E-1,7.540978268E0
7.462166708E0,3.972738647E0,-6.226751404E0,8.542735291E-1,7.435379524E0
7.472225708E0,3.854035492E0,-6.228847046E0,7.652087402E-1,7.364622836E0
7.482284708E0,3.914060669E0,-6.341712341E0,6.619235229E-1,7.481666197E0
7.492343208E0,4.029919739E0,-6.591243439E0,5.807922363E-1,7.747390709E0
7.502401208E0,4.234843597E0,-6.888824615E0,4.866380310E-1,8.101025950E0
7.512460208E0,4.533023529E0,-7.244335327E0,3.993695068E-1,8.555009798E0
7.522519208E0,4.886438599E0,-7.705675964E0,3.348536682E-1,9.130544958E0
7.532578208E0,5.253924408E0,-8.248297577E0,3.733236694E-1,9.786598243E0
7.542637208E0,5.521567841E0,-8.688981171E0,4.167333984E-1,1.030338643E1
7.552696208E0,5.812413025E0,-8.958720245E0,6.071374512E-1,1.069632785E1
7.562755208E0,6.185587006E0,-9.214987335E0,8.964857483E-1,1.113468297E1
7.572814208E0,6.354735260E0,-9.542955322E0,1.167721710E0,1.152450565E1
7.582873208E0,6.274651794E0,-9.813442841E0,1.398092651E0,1.173156335E1
7.592932208E0,6.057154083E0,-9.917326813E0,1.539698181E0,1.172233582E1
7.602991208E0,5.949078827E0,-9.987979889E0,1.552421722E0,1.172865271E1
7.613050208E0,6.013444977E0,-1.008153534E1,1.753303986E0,1.186899112E1
7.623109208E0,6.202651520E0,-1.014440460E1,2.058968353E0,1.206736016E1
7.633168208E0,6.537654877E0,-1.019754410E1,2.107317810E0,1.229518708E1
7.643227208E0,6.911128235E0,-1.026969406E1,1.654210052E0,1.248866368E1
7.653286208E0,7.395520935E0,-1.029319519E1,9.633966064E-1,1.271108690E1
7.663345208E0,7.807613983E0,-1.027178970E1,4.098477173E-1,1.290877512E1
7.673404208E0,8.045469360E0,-1.024394760E1,1.128652954E-1,1.302615746E1
7.683463208E0,8.231233063E0,-1.004216721E1,4.475692749E-2,1.298461871E1
7.693522208E0,8.257278900E0,-9.533225555E0,-6.301895142E-2,1.261225657E1
7.703581208E0,7.908953247E0,-8.436605988E0,-3.781137085E-1,1.157025635E1
7.713640208E0,7.563172302E0,-6.911277924E0,-8.280780029E-1,1.027876700E1
7.723699208E0,7.491770782E0,-5.424120483E0,-1.216819611E0,9.328899316E0
7.733758208E0,7.755222931E0,-4.129313049E0,-1.440304871E0,8.903324496E0
7.743817208E0,8.214467926E0,-3.165018311E0,-1.465751953E0,8.924306864E0
7.753875208E0,8.836574249E0,-2.672093353E0,-1.412163391E0,9.339129124E0
7.763934208E0,9.397008820E0,-2.732417908E0,-1.312321014E0,9.873807210E0
7.773993208E0,9.846973114E0,-3.229384460E0,-1.198707275E0,1.043209963E1
7.784052208E0,1.014664993E1,-4.082310791E0,-1.120120697E0,1.099429109E1
7.794111208E0,1.010563522E1,-5.043911133E0,-1.070274353E0,1.134506016E1
7.804170208E0,9.836943970E0,-5.843099213E0,-1.064735870E0,1.149090673E1
7.814229208E0,9.580227814E0,-6.643185425E0,-1.012344818E0,1.170203058E1
7.824288208E0,9.322164459E0,-7.381001129E0,-7.911048889E-1,1.191670151E1
7.834347208E0,8.929081879E0,-7.710166626E0,-3.373983765E-1,1.180207652E1
7.844406208E0,8.430019684E0,-7.631580048E0,1.428030396E-1,1.137218706E1
7.854465208E0,8.200247498E0,-7.382048950E0,6.093827820E-1,1.105034176E1
7.864524208E0,8.044421539E0,-7.132817230E0,1.244512024E0,1.082305917E1
7.874583208E0,7.658673706E0,-6.659501495E0,1.811981964E0,1.030958398E1
7.884642208E0,7.279811554E0,-6.022426300E0,2.254012756E0,9.713179104E0
7.894701208E0,7.108118591E0,-5.482199707E0,2.641706543E0,9.357268672E0
7.904760208E0,7.040309601E0,-5.107528839E0,2.920876007E0,9.175201729E0
7.914819208E0,7.010521545E0,-4.851860504E0,3.119662628E0,9.078560327E0
7.924878208E0,6.809639282E0,-4.552033997E0,3.164868622E0,8.781149928E0
7.934937208E0,6.410868530E0,-4.156556396E0,2.972069550E0,8.198133556E0
7.944996208E0,6.004463654E0,-3.838318176E0,2.507884827E0,7.554849866E0
7.955055208E0,5.749394073E0,-3.799548798E0,1.863474884E0,7.138952439E0
7.965114208E0,5.685177612E0,-3.975732422E0,1.178050232E0,7.036724744E0
7.975173208E0,5.706882477E0,-4.102668457E0,6.030958557E-1,7.054368908E0
7.985232208E0,5.702092438E0,-4.086502075E0,5.733078003E-2,7.015457519E0
7.995291208E0,5.610482941E0,-4.061354370E0,-4.608915710E-1,6.941508423E0
8.005350208E0,5.592370605E0,-4.199067993E0,-8.643026733E-1,7.046545261E0
8.015409208E0,5.694158936E0,-4.561763763E0,-1.159488831E0,7.387661942E0
8.025467208E0,5.703739014E0,-5.089715881E0,-1.253643036E0,7.746577783E0
8.035526208E0,5.670657806E0,-5.513484650E0,-1.148411865E0,7.992103775E0
8.045585208E0,5.664370880E0,-5.776038666E0,-9.578581238E-1,8.146484660E0
8.055644208E0,5.814957733E0,-5.945486298E0,-6.761439514E-1,8.343842724E0
8.065703208E0,6.069278870E0,-5.980962524E0,-3.126997375E-1,8.526771947E0
8.075762208E0,6.374643860E0,-5.728886719E0,-1.145118713E-1,8.571425806E0
8.085821208E0,6.710395660E0,-5.337899780E0,-1.393601990E-1,8.575663546E0
8.095880208E0,7.124734039E0,-5.069358215E0,-3.441343689E-1,8.750923169E0
8.105939208E0,7.561974792E0,-4.991520081E0,-6.096821594E-1,9.081324122E0
8.115998208E0,7.937244415E0,-5.213508453E0,-9.123527527E-1,9.540068493E0
8.126057208E0,8.318950653E0,-5.678591309E0,-1.090482330E0,1.013116434E1
8.136116208E0,8.606652374E0,-6.293362885E0,-1.086590424E0,1.071734856E1
8.146175208E0,8.784931641E0,-6.921606445E0,-9.346563721E-1,1.122306742E1
8.156234208E0,9.159452820E0,-7.579039307E0,-6.975494385E-1,1.190898770E1
8.166293208E0,9.574839020E0,-8.349936218E0,-4.575984192E-1,1.271252821E1
8.176352208E0,9.896370392E0,-8.980275421E0,-1.607656860E-1,1.336448051E1
8.186411208E0,1.013452515E1,-9.181457062E0,1.633103943E-1,1.367605294E1
8.196470208E0,1.025427612E1,-9.039552155E0,5.703140259E-1,1.368170092E1
8.206529208E0,1.051293823E1,-8.722810822E0,8.538244629E-1,1.368715877E1
8.216588208E0,1.106229584E1,-8.290060730E0,9.322613525E-1,1.385527363E1
8.226647208E0,1.179621964E1,-7.921078033E0,9.740245056E-1,1.424229611E1
8.236706208E0,1.239347763E1,-7.746990051E0,1.035845947E0,1.465220528E1
8.246765208E0,1.265663040E1,-7.784262543E0,9.385482788E-1,1.488844886E1
8.256824208E0,1.249870880E1,-8.068820801E0,6.378236389E-1,1.489061482E1
8.266883208E0,1.189531357E1,-8.503666534E0,3.260220337E-1,1.462590578E1
8.276942208E0,1.095766342E1,-8.730894012E0,2.371069336E-1,1.401267703E1
8.287001208E0,9.905501404E0,-8.603209534E0,4.929249573E-1,1.312924778E1
8.297060208E0,8.952133942E0,-8.161478119E0,9.134005737E-1,1.214844549E1
8.307119208E0,8.392747192E0,-7.538024597E0,1.275198212E0,1.135280365E1
8.317177208E0,8.324638824E0,-6.847660217E0,1.431772614E0,1.087382338E1
8.327236208E0,8.566386108E0,-6.285279694E0,1.367256775E0,1.071247417E1
8.337295208E0,8.954528961E0,-6.026018829E0,1.076411591E0,1.084689604E1
8.347354208E0,9.380393372E0,-6.008505249E0,6.577322388E-1,1.115914543E1
8.357413208E0,9.733059998E0,-6.164780273E0,2.209405518E-1,1.152327156E1
8.367472208E0,9.988878021E0,-6.508166199E0,-2.544708252E-2,1.192201992E1
8.377531208E0,1.015802628E1,-7.075785828E0,-1.267863464E-1,1.238015822E1
8.387590208E0,1.025637177E1,-7.960446167E0,-5.852828979E-2,1.298326964E1
8.397649208E0,1.007435028E1,-8.967102814E0,2.368075562E-1,1.348916396E1
8.407708208E0,9.617051239E0,-9.615404663E0,6.593788147E-1,1.361537593E1
8.417767208E0,8.959618378E0,-9.648485870E0,1.213376770E0,1.322272000E1
8.427826208E0,8.384664001E0,-9.333989868E0,1.706152039E0,1.266242126E1
8.437885208E0,7.948471069E0,-8.900491333E0,1.993554382E0,1.209839648E1
8.447944208E0,7.592361603E0,-8.394543457E0,2.203867035E0,1.153123343E1
8.458003208E0,7.272476807E0,-7.834857330E0,2.419418793E0,1.096026896E1
8.468062208E0,6.978937225E0,-7.293133850E0,2.602488098E0,1.042440936E1
8.478121208E0,6.736591187E0,-6.837930450E0,2.740052032E0,9.982326322E0
8.488180333E0,6.486461334E0,-6.401288452E0,2.816393280E0,9.538487595E0
8.498239333E0,6.286926270E0,-6.041736145E0,2.782563629E0,9.152632294E0
8.508298333E0,6.074817352E0,-5.852080536E0,2.617307281E0,8.831791996E0
8.518357333E0,5.942791901E0,-5.863456879E0,2.335742798E0,8.669059728E0
8.528416333E0,5.953719177E0,-6.101012878E0,2.004331970E0,8.757081525E0
8.538475333E0,5.920039215E0,-6.367009735E0,1.924996948E0,8.904565712E0
8.548534333E0,5.562283173E0,-6.343658295E0,1.822609863E0,8.631506321E0
8.558593333E0,5.057233429E0,-5.915548553E0,1.488953705E0,7.923781154E0
8.568652333E0,4.778513031E0,-5.333708496E0,1.037642212E0,7.235975019E0
8.578711333E0,4.659959564E0,-4.907395020E0,6.099815369E-1,6.794838224E0
8.588770333E0,4.585713959E0,-4.617897034E0,2.463876343E-1,6.512637898E0
8.598829333E0,4.484823761E0,-4.382286987E0,4.640350342E-3,6.270415053E0
8.608887333E0,4.445156250E0,-4.341421967E0,-1.116677856E-1,6.214485375E0
8.618946333E0,4.477039948E0,-4.538861389E0,-1.240919495E-1,6.376562414E0
8.629005333E0,4.485721893E0,-4.847818909E0,-9.505233765E-2,6.605458653E0
8.639064333E0,4.468358002E0,-5.011428680E0,-2.395019531E-3,6.714212269E0
8.649123333E0,4.518204346E0,-5.203928375E0,1.206491089E-1,6.892720599E0
8.659182333E0,4.587959290E0,-5.438789978E0,2.784210205E-1,7.120907606E0
8.669241333E0,4.642146606E0,-5.589676208E0,4.269122314E-1,7.278479188E0
8.679300333E0,4.660857697E0,-5.604046326E0,4.933740234E-1,7.305638070E0
8.689359333E0,4.617447968E0,-5.591322784E0,5.083428955E-1,7.269259158E0
8.699418333E0,4.675227814E0,-5.757327576E0,4.174818420E-1,7.428247910E0
8.709477333E0,4.865931244E0,-6.095324707E0,3.047662354E-1,7.805328476E0
8.719536333E0,5.060676270E0,-6.588698730E0,2.740800476E-1,8.312431361E0
8.729595333E0,5.355263672E0,-7.202721863E0,3.017724609E-1,8.980485390E0
8.739654333E0,5.756429443E0,-8.054151306E0,4.230203247E-1,9.908823310E0
8.749713333E0,6.080505524E0,-9.019044800E0,7.625143433E-1,1.090399673E1
8.759772333E0,6.148613892E0,-9.682315521E0,1.151705017E0,1.152732020E1
8.769831333E0,5.917494507E0,-9.996212769E0,1.386865997E0,1.169890628E1
8.779890333E0,5.644761658E0,-1.014724869E1,1.681004333E0,1.173267939E1
8.789949333E0,5.548511810E0,-1.019185593E1,2.073488159E0,1.178809839E1
8.800008333E0,5.500611420E0,-1.029154861E1,2.393522644E0,1.191224788E1
8.810067333E0,5.452561340E0,-1.051757858E1,2.639161835E0,1.213734154E1
8.820126333E0,5.668562164E0,-1.095407089E1,2.818339233E0,1.265177071E1
8.830185333E0,6.011648712E0,-1.153171967E1,2.936144257E0,1.333196991E1
8.840244333E0,6.257886658E0,-1.198722244E1,2.824326782E0,1.381417638E1
8.850303333E0,6.613846436E0,-1.211236221E1,2.422113190E0,1.401138520E1
8.860362333E0,7.091652832E0,-1.174906769E1,1.745819550E0,1.383401667E1
8.870421333E0,7.384593658E0,-1.118414246E1,1.088237000E0,1.344624579E1
8.880480333E0,7.443271637E0,-1.051204010E1,6.954537964E-1,1.289918353E1
8.890539333E0,7.256759491E0,-9.609117737E0,7.809260559E-1,1.206671237E1
8.900598333E0,7.012916565E0,-8.420140228E0,1.216669922E0,1.102542724E1
8.910657333E0,6.907236328E0,-7.062912598E0,1.745220795E0,1.003197108E1
8.920715333E0,6.961573334E0,-5.640869751E0,2.014810181E0,9.183810478E0
8.930774333E0,7.178322601E0,-4.519252167E0,1.661245422E0,8.643592533E0
8.940833333E0,7.625592499E0,-4.026476898E0,8.119116211E-1,8.661488189E0
8.950892333E0,8.305179291E0,-4.058360596E0,-3.243754578E-1,9.249406101E0
8.960951333E0,8.909322968E0,-4.470753021E0,-1.519340515E0,1.008325661E1
8.971010333E0,9.353898468E0,-5.147346039E0,-2.797831879E0,1.103713962E1
8.981069333E0,9.693242798E0,-6.036197662E0,-3.946543121E0,1.208179791E1
8.991128333E0,9.717941437E0,-7.019353180E0,-4.722978516E0,1.288472859E1
9.001187333E0,9.325008545E0,-7.695347443E0,-4.985682220E0,1.307788912E1
9.011246333E0,8.827443237E0,-7.951913910E0,-4.652924194E0,1.275956083E1
9.021305333E0,8.484955444E0,-7.965385895E0,-3.890409851E0,1.227098733E1
9.031364333E0,8.262068939E0,-7.791297913E0,-2.908302155E0,1.172281228E1
9.041423333E0,8.199349365E0,-7.372468872E0,-1.717378693E0,1.115939142E1
9.051482333E0,8.103398895E0,-6.871460724E0,-5.057981873E-1,1.063662907E1
9.061541333E0,7.935148773E0,-6.455775146E0,5.990542603E-1,1.024707201E1
9.071600333E0,7.785460052E0,-6.060596924E0,1.603615265E0,9.995789375E0
9.081659333E0,7.631879425E0,-5.620811462E0,2.462080078E0,9.792902704E0
9.091718333E0,7.425907745E0,-5.230423279E0,3.072061615E0,9.588482470E0
9.101777333E0,7.170538788E0,-5.009183350E0,3.497776337E0,9.420349444E0
9.111836333E0,6.858138428E0,-4.824766846E0,3.741170197E0,9.181981935E0
9.121895333E0,6.514602814E0,-4.682263184E0,3.682342529E0,8.827416657E0
9.131954333E0,6.249055023E0,-4.622687073E0,3.475323029E0,8.514563677E0
9.142013333E0,5.995632019E0,-4.597689056E0,2.977608032E0,8.121114305E0
9.152072333E0,5.834417267E0,-4.572840729E0,2.219135284E0,7.737949249E0
9.162131333E0,5.790408783E0,-4.444856873E0,1.432371368E0,7.438902757E0
9.172190333E0,5.729335785E0,-4.357588348E0,7.336244202E-1,7.235473000E0
9.182249333E0,5.683830414E0,-4.442461853E0,2.198927307E-1,7.217322793E0
9.192308333E0,5.686075745E0,-4.648433533E0,-1.216969299E-1,7.345352396E0
9.202367333E0,5.687273254E0,-4.868625641E0,-3.192860413E-1,7.493366151E0
9.212426333E0,5.710175629E0,-5.062472534E0,-3.978726196E-1,7.641533648E0
9.222485333E0,5.890700226E0,-5.273683319E0,-3.206332397E-1,7.912957132E0
9.232544333E0,6.136638794E0,-5.551804962E0,-6.286926270E-2,8.275555967E0
9.242603333E0,6.378236389E0,-5.895041199E0,2.727328491E-1,8.689522045E0
9.252661333E0,6.553072815E0,-6.246360626E0,5.662724304E-1,9.070857118E0
9.262720333E0,6.425538025E0,-6.395300903E0,6.872209167E-1,9.091737191E0
9.272779333E0,6.318510590E0,-6.170318756E0,6.069877625E-1,8.852391980E0
9.282838333E0,6.451883240E0,-5.821693726E0,4.352947998E-1,8.701057219E0
9.292897333E0,6.784940643E0,-5.824088745E0,3.577560425E-1,8.948933938E0
9.302956333E0,7.154222717E0,-6.224655762E0,4.046086121E-1,9.491730620E0
9.313015333E0,7.481442261E0,-6.783144379E0,5.755531311E-1,1.011505251E1
9.323074333E0,7.737859039E0,-7.260352020E0,6.529421997E-1,1.063078113E1
9.333133333E0,8.092920685E0,-7.719297638E0,4.797523499E-1,1.119433265E1
9.343192333E0,8.565937042E0,-8.161029053E0,2.019300842E-1,1.183293913E1
9.353251333E0,8.995244293E0,-8.672066345E0,-2.028282166E-1,1.249641124E1
9.363310333E0,9.059760132E0,-8.943302307E0,-6.080355835E-1,1.274486630E1
9.373369333E0,8.939260712E0,-8.724906464E0,-9.801617432E-1,1.252976823E1
9.383428333E0,9.206604767E0,-8.354576569E0,-1.482068024E0,1.252026544E1
9.393487333E0,9.685758362E0,-7.908504181E0,-1.772464142E0,1.262933025E1
9.403546333E0,1.007345215E1,-7.302115173E0,-1.855092316E0,1.257921666E1
9.413605333E0,1.047776138E1,-6.658902740E0,-1.771566010E0,1.254045117E1
9.423664333E0,1.085497696E1,-6.165229340E0,-1.477427673E0,1.257073467E1
9.433723333E0,1.117935242E1,-5.940396881E0,-1.117725677E0,1.270887667E1
9.443782333E0,1.152468430E1,-6.236630859E0,-8.434959412E-1,1.313108518E1
9.453841333E0,1.176718002E1,-7.066654816E0,-5.423222351E-1,1.373674814E1
9.463900333E0,1.169368286E1,-8.323291626E0,-1.139131165E-1,1.435382801E1
9.473959333E0,1.124222168E1,-9.635013885E0,4.231700134E-1,1.481216101E1
9.484018333E0,1.045141617E1,-1.050650162E1,1.146016846E0,1.486378252E1
9.494077083E0,9.404942322E0,-1.082938019E1,1.768572235E0,1.445186019E1
9.504136083E0,8.265062714E0,-1.065648972E1,2.185605011E0,1.366195096E1
9.514195083E0,7.374414825E0,-9.896819458E0,2.446811829E0,1.258236534E1
9.524254083E0,6.799011383E0,-8.709488525E0,2.495161285E0,1.132729341E1
9.534313083E0,6.821165314E0,-7.399861908E0,2.180814972E0,1.029767966E1
9.544372083E0,7.439679108E0,-6.377038879E0,1.731599121E0,9.950572125E0
9.554431083E0,8.363408203E0,-5.938750305E0,1.162183228E0,1.032308199E1
9.564490083E0,9.103020172E0,-5.995332642E0,6.059399414E-1,1.091678309E1
9.574549083E0,9.345815277E0,-6.234535217E0,1.079255676E-1,1.123500514E1
9.584608083E0,9.151070251E0,-6.691385193E0,-4.249662781E-1,1.134448407E1
9.594666083E0,8.869954834E0,-7.566615143E0,-8.253836060E-1,1.168807176E1
9.604725083E0,8.559350739E0,-8.650810547E0,-8.056246948E-1,1.219623054E1
9.614784083E0,7.994126129E0,-9.354796600E0,-6.486012268E-1,1.232229506E1
9.624843083E0,7.284002838E0,-9.414971466E0,-3.975732422E-1,1.191035052E1
9.634902083E0,6.747219086E0,-9.105714569E0,-8.801696777E-2,1.133343506E1
9.644961083E0,6.557713165E0,-8.616082764E0,1.887574768E-1,1.082940966E1
9.655020083E0,6.620133362E0,-8.080646210E0,5.638774109E-1,1.046140366E1
9.665079083E0,6.652017059E0,-7.579488373E0,1.146914978E0,1.014955117E1
9.675138083E0,6.602919159E0,-7.178472290E0,1.798210602E0,9.917790440E0
9.685197083E0,6.374943237E0,-6.991511078E0,2.511477356E0,9.789210741E0
9.695256083E0,5.925877075E0,-6.992109833E0,3.201392670E0,9.708477432E0
9.705315083E0,5.508395233E0,-7.102580109E0,3.641627197E0,9.697964265E0
9.715374083E0,5.130131836E0,-7.228468323E0,4.009262695E0,9.728473380E0
9.725433083E0,4.742138672E0,-7.036717072E0,4.045337677E0,9.400426759E0
9.735492083E0,4.450844421E0,-6.626719666E0,3.606899414E0,8.759746171E0
9.745551083E0,4.433929596E0,-6.241121521E0,2.949017487E0,8.204147344E0
9.755610083E0,4.682562561E0,-5.982758789E0,2.248324585E0,7.923052335E0
9.765669083E0,4.902006226E0,-5.811814270E0,1.644929352E0,7.778987255E0
9.775728083E0,5.014272766E0,-5.537734222E0,1.030008087E0,7.541243157E0
9.785787083E0,5.103487244E0,-5.126688995E0,4.544549561E-1,7.248106746E0
9.795846083E0,5.245541840E0,-4.934189301E0,-8.966354370E-2,7.202081143E0
9.805905083E0,5.313650208E0,-5.151088257E0,-5.715115356E-1,7.422615051E0
9.815964083E0,5.293591919E0,-5.615722046E0,-8.466394043E-1,7.763713530E0
9.826023083E0,5.193599854E0,-6.005062408E0,-9.550140381E-1,7.996643407E0
9.836082083E0,5.121150513E0,-6.389912109E0,-9.379495239E-1,8.242384888E0
9.846141083E0,4.895569611E0,-6.652316437E0,-7.373666382E-1,8.292383574E0
9.856200083E0,4.682412872E0,-6.705455933E0,-4.685256958E-1,8.191925653E0
9.866259083E0,4.558171234E0,-6.766379242E0,-1.299298096E-1,8.159515598E0
9.876318083E0,4.456981659E0,-6.916367340E0,2.733316040E-1,8.232589681E0
9.886377083E0,4.302802277E0,-7.015461273E0,7.375163269E-1,8.262852694E0
9.896436083E0,4.127816162E0,-6.976392517E0,1.100511475E0,8.180467244E0
9.906495083E0,4.135450287E0,-6.917564850E0,1.290167084E0,8.162057561E0
9.916554083E0,4.339326324E0,-7.088958435E0,1.441801758E0,8.435749934E0
9.926613083E0,4.531826019E0,-7.363936615E0,1.661095734E0,8.804785550E0
9.936672083E0,4.700824585E0,-7.544161835E0,1.881886597E0,9.085902637E0
9.946731083E0,4.897814941E0,-7.911797333E0,1.978136444E0,9.513051667E0
9.956789083E0,5.144501953E0,-8.442593536E0,1.936073914E0,1.007430733E1
9.966848083E0,5.382357330E0,-9.164542236E0,1.939067688E0,1.080363774E1
9.976907083E0,5.487139435E0,-9.823022919E0,2.052980804E0,1.143744764E1
9.986966083E0,5.548362122E0,-1.027178970E1,2.163451080E0,1.187326857E1
9.997025083E0,5.393733673E0,-1.023646317E1,2.327509918E0,1.180232365E1
1.000708408E1,5.160668335E0,-9.879006500E0,2.400408325E0,1.140128182E1
1.001714308E1,5.160967712E0,-9.596543884E0,2.290536804E0,1.113444211E1
1.002720208E1,5.561684418E0,-9.509724426E0,2.141895905E0,1.122296353E1
1.003726108E1,6.262527008E0,-9.723479919E0,1.961970062E0,1.173092634E1
1.004732008E1,7.011419678E0,-1.013168106E1,1.608704681E0,1.242573530E1
1.005737908E1,7.718549194E0,-1.050605255E1,1.097068634E0,1.308268709E1
1.006743808E1,8.384065247E0,-1.092802505E1,7.060816956E-1,1.379176686E1
1.007749708E1,8.649313660E0,-1.129326553E1,4.984634399E-1,1.423365515E1
1.008755608E1,8.325087891E0,-1.130943192E1,5.852828979E-1,1.405535111E1
1.009761508E1,7.470365295E0,-1.058314224E1,9.535171509E-1,1.298916673E1
1.010767408E1,6.566395111E0,-9.170978851E0,1.465003510E0,1.137412120E1
1.011773308E1,6.292464752E0,-7.589367828E0,1.922751617E0,1.004443082E1
1.012779208E1,6.509363708E0,-6.130501556E0,2.244881744E0,9.219238541E0
1.013785108E1,6.970404968E0,-5.200934601E0,2.222578125E0,8.976420203E0
1.014791008E1,7.826624451E0,-4.883145447E0,1.933978271E0,9.425573282E0
1.015796908E1,8.749904480E0,-5.034630432E0,1.413211212E0,1.019340463E1
1.016802808E1,9.290280762E0,-5.552553406E0,6.550378418E-1,1.084293505E1
1.017808708E1,9.397158508E0,-6.268963623E0,-3.252735901E-1,1.130098650E1
1.018814608E1,9.226064301E0,-6.949149170E0,-1.525926819E0,1.165072484E1
1.019820508E1,8.716224518E0,-7.329508209E0,-2.627635803E0,1.168754595E1
1.020826408E1,7.999215546E0,-7.297175446E0,-3.420387268E0,1.135496666E1
1.021832308E1,7.348069611E0,-7.017107849E0,-3.716172180E0,1.081868131E1
1.022838208E1,6.772666168E0,-6.646029510E0,-3.571722565E0,1.013883215E1
1.023844108E1,6.354286194E0,-6.195915527E0,-3.094514923E0,9.399060850E0
1.024850008E1,6.258784790E0,-5.846092987E0,-2.312541046E0,8.871135009E0
1.025855908E1,6.332281952E0,-5.706283722E0,-1.173260193E0,8.604417942E0
1.026861808E1,6.366261292E0,-5.632636871E0,3.727249146E-2,8.500427648E0
1.027867708E1,6.294410706E0,-5.514831848E0,1.060993652E0,8.435560679E0
1.028873608E1,6.138135681E0,-5.376519470E0,1.786235504E0,8.353101731E0
1.029879508E1,5.870941315E0,-5.325774994E0,2.310146027E0,8.256428155E0
1.030885408E1,5.654641113E0,-5.316194916E0,2.475252686E0,8.146396158E0
1.031891308E1,5.541476440E0,-5.267246704E0,2.280058594E0,7.978127360E0
1.032897208E1,5.426665192E0,-5.119653625E0,1.718127136E0,7.655815385E0
1.033903008E1,5.549260254E0,-4.915627899E0,1.010099487E0,7.481843889E0
1.034908908E1,5.741161194E0,-4.837640076E0,4.245172119E-1,7.519568353E0
1.035914808E1,5.905818787E0,-4.789140930E0,8.547225952E-2,7.604069430E0
1.036920708E1,6.078858948E0,-4.828808441E0,6.735992432E-3,7.763373136E0
1.037926608E1,6.276148682E0,-4.986280975E0,1.151106262E-1,8.016625892E0
1.038932508E1,6.456224213E0,-5.253774719E0,2.251318359E-1,8.326803962E0
1.039938408E1,6.482569427E0,-5.636678467E0,2.529739380E-1,8.594175140E0
1.040944308E1,6.414461060E0,-6.135740662E0,2.466870117E-1,8.879948121E0
1.041950208E1,6.220314789E0,-6.515650635E0,3.309617615E-1,9.014186317E0
1.042956108E1,6.040538635E0,-6.620283051E0,3.299139404E-1,8.968004119E0
1.043962008E1,5.966592407E0,-6.505172424E0,1.368154907E-1,8.828148826E0
1.044967908E1,6.155050507E0,-6.294710083E0,-2.359094238E-1,8.807024187E0
1.045973808E1,6.432274017E0,-5.991141357E0,-7.098239136E-1,8.818830636E0
1.046979708E1,6.804250488E0,-5.653593292E0,-1.119671631E0,8.917096298E0
1.047985608E1,7.106472015E0,-5.490133209E0,-1.528321838E0,9.109296065E0
1.048991458E1,7.382348328E0,-5.608087921E0,-1.799857178E0,9.444003538E0
1.049997358E1,7.746840363E0,-6.011049957E0,-1.823657684E0,9.973564285E0
1.051003258E1,8.101902008E0,-6.566694489E0,-1.538650360E0,1.054180903E1
1.052009158E1,8.398285675E0,-7.213200073E0,-1.158291321E0,1.113117677E1
1.053015058E1,8.633296967E0,-7.792046356E0,-7.652087402E-1,1.165484223E1
1.054020958E1,8.854087830E0,-8.258925476E0,-4.586462402E-1,1.211672719E1
1.055026858E1,8.994046783E0,-8.564440155E0,-2.415975952E-1,1.242179062E1
1.056032758E1,9.221423950E0,-8.772806854E0,-1.448986816E-1,1.272862111E1
1.057038658E1,9.434431000E0,-8.825347595E0,-4.700225830E-2,1.291887989E1
1.058044558E1,9.589957581E0,-8.675509186E0,8.891510010E-2,1.293211707E1
1.059050458E1,9.710457001E0,-8.371790771E0,1.927990723E-1,1.282252032E1
1.060056358E1,9.870025177E0,-7.969577179E0,1.857637024E-1,1.268724027E1
1.061062258E1,1.002989273E1,-7.616162109E0,8.532257080E-3,1.259383763E1
1.062068158E1,1.023466690E1,-7.520511017E0,-2.561174011E-1,1.270323143E1
1.063074058E1,1.040216858E1,-7.865693207E0,-4.599934387E-1,1.304936147E1
1.064079958E1,1.042297531E1,-8.477770386E0,-5.643264771E-1,1.344728483E1
1.065085858E1,1.028002258E1,-9.119635620E0,-5.339396667E-1,1.375251649E1
1.066091758E1,1.005189697E1,-9.709708557E0,-3.285667419E-1,1.397952178E1
1.067097658E1,9.797426147E0,-1.033645523E1,-1.721420288E-2,1.424191568E1
1.068103558E1,9.207802277E0,-1.082264420E1,4.960684204E-1,1.421827465E1
1.069109458E1,8.035440216E0,-1.045755341E1,1.053658905E0,1.323022750E1
1.070115358E1,7.316185913E0,-9.398206329E0,1.347497864E0,1.198618409E1
1.071121258E1,7.271428986E0,-7.909402313E0,1.366658020E0,1.083051608E1
1.072127158E1,7.541766815E0,-6.370302887E0,1.224453735E0,9.947778270E0
1.073133058E1,7.907306671E0,-5.169350281E0,9.503736877E-1,9.494782318E0
1.074138858E1,8.287366333E0,-4.454886017E0,5.918692017E-1,9.427447126E0
1.075144758E1,8.581953735E0,-4.238885193E0,2.329156494E-1,9.574566690E0
1.076150658E1,8.630452881E0,-4.450844421E0,-3.607498169E-2,9.710614522E0
1.077156558E1,8.486302643E0,-5.123545532E0,-1.962419128E-1,9.914966579E0
1.078162458E1,8.277636566E0,-6.192622375E0,-1.296304321E-1,1.033850294E1
1.079168358E1,8.048463135E0,-7.355554047E0,-8.846603394E-2,1.090365812E1
1.080174258E1,7.704328766E0,-8.257727966E0,-3.996688843E-2,1.129373057E1
1.081180158E1,7.286996613E0,-8.805588684E0,5.658233643E-2,1.142986935E1
1.082186058E1,6.804400177E0,-9.029073944E0,2.104623413E-1,1.130788806E1
1.083191958E1,6.469696198E0,-8.956175537E0,4.123924255E-1,1.105622524E1
1.084197858E1,6.347101135E0,-8.762029266E0,6.110293579E-1,1.083661417E1
1.085203758E1,6.293512573E0,-8.469387817E0,8.506809998E-1,1.058595714E1
1.086209658E1,6.312822418E0,-8.099357300E0,1.095571747E0,1.032722581E1
1.087215558E1,6.342161407E0,-7.698490906E0,1.381327515E0,1.006964941E1
1.088221458E1,6.319408722E0,-7.319479065E0,1.650018768E0,9.809804397E0
1.089227358E1,6.318959656E0,-6.990463257E0,1.895807648E0,9.611967245E0
1.090233258E1,6.325096893E0,-6.732549591E0,2.087259521E0,9.470518836E0
1.091239158E1,6.299500122E0,-6.498586121E0,2.148931274E0,9.302323848E0
1.092245058E1,6.365363159E0,-6.316115570E0,2.121987305E0,9.214878955E0
1.093250958E1,6.421496429E0,-6.138734436E0,2.151026917E0,9.140382578E0
1.094256858E1,6.524631958E0,-5.806126099E0,2.260299683E0,9.021689261E0
1.095262758E1,6.590195618E0,-5.434898071E0,2.263892212E0,8.837081151E0
1.096268658E1,6.517596588E0,-5.144651642E0,2.068997498E0,8.557292589E0
1.097274558E1,6.245462494E0,-5.055437164E0,1.810784454E0,8.236636876E0
1.098280458E1,5.903423767E0,-5.201233978E0,1.563348999E0,8.021677329E0
1.099286358E1,5.522465973E0,-5.449268188E0,1.312321014E0,7.868566620E0
1.100292258E1,5.018314362E0,-5.662424927E0,1.092428284E0,7.644601666E0
1.101298158E1,4.457730103E0,-5.855523376E0,8.415499878E-1,7.407207170E0
1.102304058E1,4.090992737E0,-6.118825836E0,4.944218445E-1,7.377038982E0
1.103309958E1,3.828139343E0,-6.385870514E0,2.387535095E-1,7.449227899E0
1.104315858E1,3.542233887E0,-6.540498962E0,5.807922363E-2,7.438341265E0
1.105321758E1,3.318000183E0,-6.640940094E0,-7.723937988E-2,7.424094320E0
1.106327658E1,3.150498505E0,-6.664740601E0,-1.555265808E-1,7.373506399E0
1.107333558E1,3.179687805E0,-6.639443207E0,-2.368075562E-1,7.365371576E0
1.108339458E1,3.348836060E0,-6.739285583E0,-1.222956848E-1,7.526461942E0
1.109345358E1,3.662583618E0,-6.796616364E0,1.181044006E-1,7.721558224E0
1.110351258E1,4.135450287E0,-6.900051270E0,3.715274048E-1,8.052992562E0
1.111357158E1,4.644092560E0,-7.096742249E0,6.222560120E-1,8.504031326E0
1.112363058E1,5.192402344E0,-7.453749847E0,8.936416626E-1,9.127870743E0
1.113368958E1,5.617667999E0,-7.852221222E0,1.159638519E0,9.724213766E0
1.114374758E1,5.981710968E0,-8.225844269E0,1.382974091E0,1.026440438E1
1.115380658E1,6.346352692E0,-8.682843933E0,1.410666504E0,1.084702499E1
1.116386558E1,6.673422546E0,-9.214238892E0,1.463057556E0,1.147071507E1
1.117392458E1,6.748117218E0,-9.682614899E0,1.496438141E0,1.189661483E1
1.118398358E1,6.573580170E0,-9.975705414E0,1.818867645E0,1.208449148E1
1.119404258E1,6.263574829E0,-1.008243347E1,2.349514160E0,1.209991947E1
1.120410158E1,5.924978943E0,-1.008273285E1,2.898273010E0,1.204852122E1
1.121416058E1,5.666316833E0,-1.002300705E1,3.301833801E0,1.197789310E1
1.122421958E1,5.567222900E0,-1.015383499E1,3.543880463E0,1.211005469E1
1.123427858E1,5.846991119E0,-1.053853500E1,3.480412445E0,1.254437308E1
1.124433758E1,6.585854645E0,-1.096754288E1,2.974763947E0,1.313429475E1
1.125439658E1,7.399712219E0,-1.139101227E1,2.040856018E0,1.373593807E1
1.126445558E1,8.061635742E0,-1.175295959E1,6.301895142E-1,1.426601447E1
1.127451458E1,8.502169647E0,-1.196536789E1,-1.019529877E0,1.471381523E1
1.128457358E1,8.273445282E0,-1.165147064E1,-2.505040741E0,1.450799414E1
1.129463258E1,7.512128448E0,-1.054302567E1,-3.039130096E0,1.329751013E1
1.130469158E1,7.041058044E0,-8.898994446E0,-2.395917664E0,1.159780246E1
1.131475058E1,6.835984497E0,-7.013515320E0,-1.130449219E0,9.858904433E0
1.132480958E1,6.918163605E0,-5.326972504E0,3.966751099E-2,8.731506011E0
1.133486858E1,7.385791168E0,-4.001179504E0,6.569837952E-1,8.425614299E0
1.134492758E1,8.237669678E0,-3.059338074E0,7.725434875E-1,8.821313656E0
1.135498658E1,8.931476898E0,-2.822530518E0,5.083428955E-1,9.380638070E0
1.136504558E1,9.115144958E0,-3.378923492E0,-1.791773987E-1,9.722916030E0
1.137510458E1,8.922495575E0,-4.301904144E0,-1.002165985E0,9.955985296E0
1.138516358E1,8.813073120E0,-5.376968536E0,-1.851350098E0,1.048854354E1
1.139522258E1,8.832083588E0,-6.454727325E0,-2.695893860E0,1.126663433E1
1.140528158E1,8.680748291E0,-7.228318634E0,-3.397484894E0,1.179605378E1
1.141534058E1,8.335266724E0,-7.598349152E0,-3.737727356E0,1.188201107E1
1.142539958E1,7.741601257E0,-7.681127014E0,-3.634142761E0,1.149517707E1
1.143545858E1,7.195836182E0,-7.535928955E0,-3.169359283E0,1.089105697E1
1.144551758E1,6.946305084E0,-7.249724121E0,-2.506387939E0,1.034850881E1
1.145557658E1,6.929989014E0,-6.884483643E0,-1.652264099E0,9.907110548E0
1.146563558E1,6.922205200E0,-6.492149506E0,-7.330256653E-1,9.518521769E0
1.147569458E1,6.771917725E0,-6.173761597E0,7.604187012E-2,9.164059378E0
1.148575358E1,6.631809082E0,-5.939349060E0,7.502398682E-1,8.934182605E0
1.149581300E1,6.461613007E0,-5.800437927E0,1.232087860E0,8.770151840E0
1.150587200E1,6.124813385E0,-5.670508118E0,1.393152924E0,8.462202809E0
1.151593100E1,5.755681000E0,-5.552254028E0,1.408570862E0,8.120311597E0
1.152599000E1,5.477259979E0,-5.565576324E0,1.347048798E0,7.924049291E0
1.153604900E1,5.233417053E0,-5.519921265E0,1.060245209E0,7.679993797E0
1.154610800E1,4.882397003E0,-5.335205383E0,7.277865601E-1,7.268554895E0
1.155616700E1,4.768334198E0,-5.178032227E0,5.089416504E-1,7.057481872E0
1.156622500E1,4.811594238E0,-5.177583160E0,4.412823486E-1,7.081916168E0
1.157628400E1,4.846920776E0,-5.307063904E0,5.014572144E-1,7.204791991E0
1.158634300E1,4.926405487E0,-5.460943909E0,4.855902100E-1,7.370697202E0
1.159640200E1,5.062921600E0,-5.591472473E0,3.878434753E-1,7.553023375E0
1.160646100E1,5.280119934E0,-5.773344269E0,2.583627319E-1,7.828021581E0
1.161652000E1,5.566923523E0,-6.007457428E0,2.091151428E-1,8.192918369E0
1.162657900E1,5.865851898E0,-6.213279419E0,2.613565063E-1,8.548764054E0
1.163663800E1,6.134243774E0,-6.423891449E0,3.438349915E-1,8.888956662E0
1.164669700E1,6.361620941E0,-6.612499237E0,4.076023865E-1,9.184852033E0
1.165675600E1,6.400390320E0,-6.734345856E0,5.195695496E-1,9.305179357E0
1.166681500E1,6.349795532E0,-6.676416321E0,6.503974915E-1,9.236744832E0
1.167687400E1,6.330036621E0,-6.388415222E0,7.602690125E-1,9.025476256E0
1.168693300E1,6.550378418E0,-6.145320740E0,7.608677673E-1,9.013952750E0
1.169699200E1,6.988367615E0,-6.105503540E0,7.424560547E-1,9.309441250E0
1.170705100E1,7.312892761E0,-6.306834869E0,8.111631775E-1,9.690848895E0
1.171711000E1,7.437583466E0,-6.460116119E0,8.589138794E-1,9.888805850E0
1.172716900E1,7.665559387E0,-6.515800323E0,7.553292847E-1,1.008895321E1
1.173722800E1,8.124205627E0,-6.719975739E0,5.373825073E-1,1.055696789E1
1.174728700E1,8.593030701E0,-7.081174622E0,2.284249878E-1,1.113711761E1
1.175734600E1,9.075627136E0,-7.419920197E0,-2.363584900E-1,1.172510507E1
1.176740500E1,9.505832520E0,-7.720944214E0,-7.171586609E-1,1.226736108E1
1.177746400E1,9.644893341E0,-7.917186127E0,-1.114731903E0,1.252790609E1
1.178752300E1,9.726324005E0,-8.004754028E0,-1.184786224E0,1.265231932E1
1.179758200E1,9.675729218E0,-7.894134064E0,-1.112486572E0,1.253693403E1
1.180764100E1,9.627230072E0,-7.630532227E0,-1.019230499E0,1.232669509E1
1.181770000E1,9.773026886E0,-7.595954132E0,-8.174501038E-1,1.240478933E1
1.182775900E1,9.908195801E0,-7.805817719E0,-4.168830872E-1,1.262049626E1
1.183781800E1,9.972112885E0,-8.240962830E0,-6.526428223E-2,1.293679880E1
1.184787700E1,9.933942261E0,-8.956025848E0,3.144960022E-1,1.337880845E1
1.185793600E1,9.735155640E0,-9.709259491E0,8.843609619E-1,1.377770189E1
1.186799500E1,9.455088043E0,-1.041593994E1,1.499880981E0,1.414708937E1
1.187805400E1,9.027726746E0,-1.096844101E1,2.104473724E0,1.436089684E1
1.188811300E1,8.486003265E0,-1.134670441E1,2.602488098E0,1.440600210E1
1.189817200E1,7.811356201E0,-1.145882126E1,2.794987793E0,1.414686633E1
1.190823100E1,6.969806213E0,-1.088671097E1,2.764451294E0,1.321895856E1
1.191829000E1,6.293512573E0,-9.629176025E0,2.431543579E0,1.175762457E1
1.192834900E1,6.304739227E0,-8.099956055E0,1.888921967E0,1.043681230E1
1.193840800E1,6.721173248E0,-6.775809631E0,1.364113312E0,9.640880205E0
1.194846700E1,7.338339844E0,-5.843248901E0,9.687854004E-1,9.430447208E0
1.195852600E1,7.919431458E0,-5.370831299E0,7.499404907E-1,9.598209947E0
1.196858500E1,8.145760803E0,-5.283862152E0,6.944059753E-1,9.734208646E0
1.197864400E1,8.143066406E0,-5.582191772E0,7.212002563E-1,9.899016380E0
1.198870300E1,7.923173676E0,-6.223757629E0,7.228468323E-1,1.010120526E1
1.199876200E1,7.541018372E0,-6.915169830E0,6.007008362E-1,1.024926209E1
1.200882100E1,7.194189606E0,-7.557484131E0,2.639012146E-1,1.043750805E1
1.201888000E1,6.926695862E0,-8.049510956E0,-1.698966980E-1,1.062085717E1
1.202893900E1,6.732549591E0,-8.287366333E0,-5.897735596E-1,1.069371299E1
1.203899800E1,6.522686005E0,-8.233777771E0,-8.488847351E-1,1.053855466E1
1.204905600E1,6.447542267E0,-8.061186676E0,-7.481442261E-1,1.034955321E1
1.205911500E1,6.406677246E0,-7.891289978E0,-3.486250305E-1,1.017052163E1
1.206917400E1,6.165678406E0,-7.718549194E0,2.002835083E-1,9.880875738E0
1.207923300E1,5.954317932E0,-7.569159851E0,7.785310364E-1,9.661893886E0
1.208929200E1,5.832321625E0,-7.536976776E0,1.353485413E0,9.625690480E0
1.209935100E1,5.735323334E0,-7.582182770E0,1.863025818E0,9.687842613E0
1.210941000E1,5.648354187E0,-7.496560822E0,2.372416534E0,9.681461118E0
1.211946900E1,5.591622162E0,-7.241341553E0,2.667003937E0,9.529752142E0
1.212952800E1,5.649851074E0,-7.024592285E0,2.744542694E0,9.423281198E0
1.213958700E1,5.816454620E0,-6.881040802E0,2.637814636E0,9.388180491E0
1.214964600E1,5.871540070E0,-6.707102509E0,2.311493225E0,9.208865716E0
1.215970500E1,5.749094696E0,-6.476282501E0,1.744023285E0,8.833795451E0
1.216976400E1,5.593867493E0,-6.313421173E0,1.207987976E0,8.521142845E0
1.217982300E1,5.431455231E0,-6.220614166E0,7.180567932E-1,8.289291410E0
1.218988200E1,5.245392151E0,-6.200705566E0,3.101550293E-1,8.127673990E0
1.219994100E1,4.952002258E0,-6.256689148E0,-2.694396973E-2,7.979298931E0
1.221000000E1,4.732109528E0,-6.398594055E0,-3.285667419E-1,7.965100286E0
1.222005900E1,4.770579529E0,-6.767427063E0,-5.102888489E-1,8.295594783E0
1.223011800E1,4.922663269E0,-7.287146301E0,-4.546046448E-1,8.805781070E0
1.224017700E1,4.911885681E0,-7.549101563E0,-2.790197754E-1,9.010738448E0
1.225023600E1,4.758155365E0,-7.456444244E0,-1.457968140E-1,8.846460307E0
1.226029500E1,4.713997192E0,-7.190597076E0,7.125183105E-2,8.598344763E0
1.227035400E1,4.763693848E0,-6.809190216E0,3.034190369E-1,8.315642704E0
1.228041300E1,4.701722717E0,-6.519692230E0,3.254232788E-1,8.044779897E0
1.229047200E1,4.566553802E0,-6.407575378E0,3.112028503E-1,7.874470336E0
1.230053100E1,4.536166992E0,-6.494394836E0,3.567082214E-1,7.929767716E0
1.231059000E1,4.627776489E0,-6.733447723E0,4.763095093E-1,8.184283978E0
1.232064900E1,4.882546692E0,-6.922654266E0,6.694079590E-1,8.497676818E0
1.233070800E1,5.282964020E0,-7.096442871E0,8.764274597E-1,8.890294447E0
1.234076700E1,5.672753448E0,-7.362439728E0,1.069675598E0,9.355739218E0
1.235082600E1,5.995332642E0,-7.632178802E0,1.088237000E0,9.766187922E0
1.236088500E1,6.266568604E0,-7.984845428E0,1.000070343E0,1.019940093E1
1.237094400E1,6.433022461E0,-8.296796722E0,1.016835480E0,1.054772811E1
1.238100300E1,6.541247406E0,-8.522527313E0,1.151405640E0,1.080495832E1
1.239106200E1,6.561006317E0,-8.665779419E0,1.400038605E0,1.095913523E1
1.240112100E1,6.446045380E0,-8.821306000E0,1.655706940E0,1.105026271E1
1.241118000E1,6.167474670E0,-9.024882660E0,1.874402161E0,1.109052002E1
1.242123900E1,5.740263062E0,-9.182205505E0,2.040856018E0,1.101946511E1
1.243129800E1,5.447471924E0,-9.227411499E0,2.157164154E0,1.093039023E1
1.244135700E1,5.721102905E0,-9.357940063E0,2.176773376E0,1.118214662E1
1.245141600E1,6.488407288E0,-9.715097351E0,1.954635315E0,1.184496285E1
1.246147500E1,7.022197266E0,-1.011491592E1,1.567390594E0,1.241287605E1
1.247153400E1,7.268285522E0,-1.056937088E1,1.044378204E0,1.286974363E1
1.248159300E1,7.435487823E0,-1.111857880E1,5.989045715E-1,1.338909856E1
1.249165196E1,7.563471680E0,-1.154369476E1,4.887336731E-1,1.380948418E1
1.250171096E1,7.583979034E0,-1.164443527E1,7.179071045E-1,1.391492010E1
1.251176996E1,7.415728912E0,-1.104972198E1,1.329834595E0,1.337377476E1
1.252182896E1,6.914271698E0,-9.694589996E0,2.044149170E0,1.208183654E1
1.253188796E1,6.517895966E0,-8.093070374E0,2.755320282E0,1.075046723E1
1.254194696E1,6.475683746E0,-6.755302277E0,3.324137421E0,9.930683684E0
1.255200596E1,6.858437805E0,-5.791157227E0,3.632196808E0,9.683414935E0
1.256206496E1,7.489974518E0,-5.159770203E0,3.810925140E0,9.861343582E0
1.257212296E1,8.304281158E0,-4.762047272E0,3.449726257E0,1.017540127E1
1.258218196E1,9.238787842E0,-4.555027771E0,2.372566223E0,1.057036183E1
1.259224096E1,9.643995209E0,-4.421505432E0,5.939648438E-1,1.062587164E1
1.260229996E1,9.660610657E0,-4.308640137E0,-1.581161957E0,1.069541263E1
1.261235896E1,9.408834229E0,-4.401447144E0,-3.714824982E0,1.103171896E1
1.262241796E1,8.818761292E0,-4.753515015E0,-5.279970245E0,1.132451065E1
1.263247696E1,8.057145081E0,-5.199138336E0,-5.730233917E0,1.117068516E1
1.264253596E1,7.347321167E0,-5.788013763E0,-5.306165771E0,1.075358670E1
1.265259496E1,6.530170441E0,-6.124214630E0,-4.358935547E0,9.957381680E0
1.266265396E1,6.040838013E0,-6.278244324E0,-3.121608582E0,9.254864441E0
1.267271296E1,5.870791626E0,-6.438710632E0,-1.828447723E0,8.903168537E0
1.268277196E1,5.617518311E0,-6.611900482E0,-6.421646118E-1,8.699776741E0
1.269283096E1,5.276377716E0,-6.765331421E0,2.290237427E-1,8.582675743E0
1.270288996E1,5.021008759E0,-6.817123718E0,1.082099762E0,8.535493228E0
1.271294896E1,4.941074982E0,-6.866970062E0,1.945055237E0,8.680595584E0
1.272300796E1,4.957241364E0,-6.849007416E0,2.656226349E0,8.862205309E0
1.273306696E1,5.011728058E0,-6.712042236E0,3.112028503E0,8.936086980E0
1.274312596E1,5.237907715E0,-6.576124878E0,3.328478394E0,9.042116127E0
1.275318496E1,5.479654999E0,-6.415957947E0,3.275338898E0,9.050910461E0
1.276324396E1,5.718707886E0,-6.063441010E0,2.874322815E0,8.816499782E0
1.277330296E1,6.137087860E0,-5.687273254E0,2.240391083E0,8.661886439E0
1.278336196E1,6.544690247E0,-5.530848541E0,1.672322388E0,8.730401948E0
1.279342096E1,6.581663361E0,-5.473368073E0,1.246308289E0,8.650395078E0
1.280347996E1,6.346053314E0,-5.408702545E0,8.343649292E-1,8.379893837E0
1.281353896E1,6.232738953E0,-5.347180481E0,4.797523499E-1,8.226149541E0
1.282359796E1,6.318510590E0,-5.346132660E0,3.058140564E-1,8.282405009E0
1.283365696E1,6.463409271E0,-5.330265656E0,2.341131592E-1,8.381062005E0
1.284371596E1,6.629264374E0,-5.249284058E0,1.954934692E-1,8.458152691E0
1.285377496E1,6.838529205E0,-5.032385101E0,2.031275940E-1,8.493034930E0
1.286383396E1,7.013365631E0,-4.776716766E0,1.181044006E-1,8.486357828E0
1.287389296E1,7.086413727E0,-4.548291779E0,-8.652008057E-2,8.420908700E0
1.288395196E1,7.133715363E0,-4.342918854E0,-2.859054565E-1,8.356589075E0
1.289401096E1,7.088958435E0,-4.312681732E0,-4.507127380E-1,8.309975775E0
1.290406996E1,6.957531738E0,-4.399052124E0,-5.089416504E-1,8.247298290E0
1.291412896E1,6.911277924E0,-4.709506531E0,-4.032614136E-1,8.373042104E0
1.292418796E1,6.913523254E0,-5.227878571E0,-7.783813477E-3,8.667616669E0
1.293424696E1,7.152576141E0,-5.910459137E0,2.881507874E-1,9.283097734E0
1.294430596E1,7.630981293E0,-6.647676086E0,2.478845215E-1,1.012348357E1
1.295436496E1,8.054450684E0,-7.235803070E0,-5.912704468E-2,1.082748899E1
1.296442396E1,8.397387543E0,-7.758815460E0,-4.595443726E-1,1.144231252E1
1.297448296E1,8.801846466E0,-8.361761627E0,-7.188052368E-1,1.216175315E1
1.298454196E1,9.034163361E0,-8.990005188E0,-9.633966064E-1,1.278140970E1
1.299460096E1,9.255253601E0,-9.389973450E0,-1.083147583E0,1.322892775E1
1.300465896E1,9.579629059E0,-9.580527191E0,-1.033600616E0,1.358764602E1
1.301471796E1,9.904154205E0,-9.538314972E0,-9.409432983E-1,1.378249242E1
1.302477696E1,1.018721558E1,-9.361532593E0,-7.638615417E-1,1.385644753E1
1.303483596E1,1.053434372E1,-9.136849823E0,-4.909790039E-1,1.395333231E1
1.304489496E1,1.087323898E1,-9.044641571E0,-1.859133911E-1,1.414451947E1
1.305495396E1,1.102816681E1,-9.075477448E0,1.347198486E-1,1.428295850E1
1.306501296E1,1.103355560E1,-9.324110413E0,2.957849121E-1,1.444873257E1
1.307507196E1,1.082264420E1,-9.828561401E0,4.340972900E-1,1.462595936E1
1.308513096E1,1.019874161E1,-1.036384827E1,7.159611511E-1,1.455803152E1
1.309518996E1,9.350455627E0,-1.069855225E1,1.145268402E0,1.425488268E1
1.310524896E1,8.359665985E0,-1.064690964E1,1.674567719E0,1.363982688E1
1.311530796E1,7.329059143E0,-9.973909149E0,2.093845825E0,1.255301406E1
1.312536696E1,6.781497803E0,-8.909921722E0,2.072590027E0,1.138731957E1
1.313542596E1,6.837331696E0,-7.819738770E0,1.751507721E0,1.053400201E1
1.314548496E1,7.197033691E0,-6.954088898E0,1.294208679E0,1.009116556E1
1.315554396E1,7.660769348E0,-6.361321564E0,7.512876892E-1,9.985901674E0
1.316560296E1,8.062683563E0,-5.894143066E0,3.400927734E-1,9.993170259E0
1.317566196E1,8.324788513E0,-5.515879669E0,1.751358032E-2,9.986357646E0
1.318572096E1,8.401728516E0,-5.507048035E0,-2.871029663E-1,1.004982827E1
1.319577996E1,8.316855011E0,-5.998326416E0,-5.721102905E-1,1.027021457E1
1.320583896E1,8.123457184E0,-6.755152588E0,-7.578739929E-1,1.059230929E1
1.321589796E1,7.955955505E0,-7.487878876E0,-7.185058594E-1,1.094905515E1
1.322595696E1,7.648345184E0,-8.224796448E0,-4.909790039E-1,1.124213152E1
1.323601596E1,7.172634430E0,-8.708590393E0,-1.930984497E-1,1.128377234E1
1.324607496E1,6.719077606E0,-8.798852692E0,1.760339355E-1,1.107234395E1
1.325613396E1,6.377637634E0,-8.637637939E0,4.824467468E-1,1.074782796E1
1.326619296E1,6.152505798E0,-8.328979797E0,7.521858215E-1,1.038224521E1
1.327625196E1,5.980812836E0,-8.050708466E0,1.001716919E0,1.007906076E1
1.328631096E1,5.784121857E0,-7.731721802E0,1.219514008E0,9.732564004E0
1.329636996E1,5.520070953E0,-7.367080078E0,1.359772339E0,9.305591492E0
1.330642896E1,5.326972504E0,-7.066954193E0,1.514400787E0,8.978412297E0
1.331648796E1,5.239404602E0,-6.804549866E0,1.683549042E0,8.751433987E0
1.332654696E1,5.331163788E0,-6.727310486E0,1.801204376E0,8.770538804E0
1.333660596E1,5.680237885E0,-6.950646057E0,1.799857178E0,9.155111627E0
1.334666496E1,6.004164276E0,-7.293283539E0,1.815424805E0,9.619653874E0
1.335672396E1,5.847440186E0,-7.388934631E0,1.954036560E0,9.623261952E0
1.336678296E1,5.648204498E0,-7.326664124E0,1.919907532E0,9.448188512E0
1.337684196E1,5.708828430E0,-7.155120850E0,1.612895966E0,9.294509660E0
1.338689996E1,5.549409943E0,-6.716981964E0,1.272952881E0,8.805351013E0
1.339695896E1,5.163512421E0,-6.135740662E0,1.016536102E0,8.083472004E0
1.340701796E1,4.999902649E0,-5.651946716E0,1.016236725E0,7.614214685E0
1.341707696E1,5.082381134E0,-5.365741882E0,1.094374237E0,7.471240788E0
1.342713596E1,5.125641174E0,-5.268743591E0,1.096320190E0,7.431942844E0
1.343719496E1,5.114115143E0,-5.272635498E0,1.137484589E0,7.432948942E0
1.344725396E1,5.142406311E0,-5.393583984E0,1.168170776E0,7.543189897E0
1.345731296E1,5.234015808E0,-5.658533020E0,1.236129456E0,7.806531461E0
1.346737196E1,5.252427521E0,-5.894891510E0,1.251996460E0,7.994075050E0
1.347743096E1,5.209766235E0,-6.062542877E0,1.105301514E0,8.069558960E0
1.348748996E1,5.101092224E0,-6.195466461E0,8.686436462E-1,8.072142735E0
1.349754908E1,4.926704865E0,-6.321803741E0,6.945556641E-1,8.044876067E0
1.350760808E1,4.921914825E0,-6.544390869E0,6.297404480E-1,8.212847888E0
1.351766708E1,4.950056305E0,-6.787485352E0,5.498066711E-1,8.418747068E0
1.352772608E1,4.933141479E0,-7.109016724E0,5.794450378E-1,8.672356092E0
1.353778508E1,4.928950195E0,-7.447462921E0,6.382727051E-1,8.953582860E0
1.354784408E1,5.091961212E0,-7.831264801E0,6.950047302E-1,9.366953024E0
1.355790308E1,5.340145111E0,-8.384813690E0,6.797364807E-1,9.964150346E0
1.356796208E1,5.531896362E0,-8.903634796E0,6.842271423E-1,1.050451126E1
1.357802108E1,5.652545471E0,-9.335636444E0,8.599617004E-1,1.094737011E1
1.358808008E1,5.743256836E0,-9.726922760E0,1.137634277E0,1.135307171E1
1.359813908E1,5.835614777E0,-1.011536499E1,1.505569153E0,1.177462302E1
1.360819808E1,5.662275238E0,-1.028825546E1,2.035317535E0,1.191856027E1
1.361825708E1,5.289550323E0,-1.027553192E1,2.557880859E0,1.183675012E1
1.362831608E1,4.954546967E0,-1.027792694E1,3.001408539E0,1.179795622E1
1.363837508E1,4.945415955E0,-1.059062668E1,3.396287384E0,1.217182322E1
1.364843408E1,5.248984680E0,-1.103295685E1,3.590733032E0,1.273465118E1
1.365849308E1,5.737418976E0,-1.140238861E1,3.457659760E0,1.322451714E1
1.366855208E1,6.396199036E0,-1.183004929E1,3.147654419E0,1.381192081E1
1.367861108E1,6.937473450E0,-1.228585144E1,2.684367828E0,1.436232969E1
1.368867008E1,6.941065979E0,-1.246922012E1,2.160157928E0,1.443350719E1
1.369872908E1,6.285279694E0,-1.204605011E1,1.800156555E0,1.370593403E1
1.370878708E1,5.544470215E0,-1.100361786E1,1.702709198E0,1.243864842E1
1.371884608E1,5.179529114E0,-9.279503174E0,1.657952271E0,1.075571972E1
1.372890508E1,5.229824524E0,-7.274123383E0,1.361867981E0,9.061932461E0
1.373896408E1,5.902375946E0,-5.645809479E0,9.702822876E-1,8.225244932E0
1.374902308E1,7.150330811E0,-4.544998627E0,5.069956970E-1,8.487713936E0
1.375908208E1,8.552315369E0,-4.015848999E0,-8.816665649E-2,9.448646184E0
1.376914108E1,9.550290070E0,-3.928730164E0,-7.626640320E-1,1.035493204E1
1.377920008E1,1.006701553E1,-4.331093445E0,-1.395547943E0,1.104765705E1
1.378925908E1,1.017134857E1,-5.109923859E0,-2.178569641E0,1.158938390E1
1.379931808E1,9.928703156E0,-6.046825562E0,-2.882106628E0,1.197705241E1
1.380937708E1,9.448801117E0,-6.827003174E0,-3.425027618E0,1.214984070E1
1.381943608E1,8.855584717E0,-7.210355988E0,-3.608396301E0,1.197627396E1
1.382949508E1,8.107141113E0,-7.391928406E0,-3.442391510E0,1.149853912E1
1.383955408E1,7.321574707E0,-7.413034515E0,-3.021017761E0,1.084827568E1
1.384961308E1,6.785389709E0,-7.281607819E0,-2.430944824E0,1.024562437E1
1.385967208E1,6.567442932E0,-7.109016724E0,-1.516646118E0,9.796409592E0
1.386973108E1,6.397995300E0,-7.042105865E0,-4.243675232E-1,9.523953311E0
1.387979008E1,6.164480896E0,-7.010371857E0,7.776329041E-1,9.367542432E0
1.388984908E1,5.927523651E0,-6.753655701E0,1.977238312E0,9.200916981E0
1.389990808E1,5.654341736E0,-6.327192535E0,3.097059631E0,9.033090512E0
1.390996708E1,5.424120483E0,-5.997428284E0,3.924239502E0,8.988319348E0
1.392002608E1,5.174888763E0,-5.801485748E0,4.438869324E0,8.952109890E0
1.393008508E1,4.986580353E0,-5.650300140E0,4.959337006E0,9.021468773E0
1.394014408E1,4.916825409E0,-5.554050293E0,5.217849426E0,9.069101355E0
1.395020308E1,4.828209686E0,-5.368436279E0,4.760849762E0,8.648549434E0
1.396026208E1,4.709057465E0,-5.178032227E0,3.670666809E0,7.903229389E0
1.397032108E1,4.685406647E0,-5.100044403E0,2.456691284E0,7.348388968E0
1.398038008E1,4.577032013E0,-4.994364166E0,1.365011444E0,6.910582589E0
1.399043908E1,4.441563721E0,-4.882247314E0,4.927752686E-1,6.618659577E0
1.400049808E1,4.556374969E0,-4.958139496E0,-1.344204712E-1,6.735114623E0
1.401055708E1,4.806654510E0,-5.249583435E0,-5.412744141E-1,7.138279332E0
1.402061608E1,5.135969696E0,-5.672903137E0,-8.116122437E-1,7.695370632E0
1.403067408E1,5.481451263E0,-6.059848480E0,-8.671467590E-1,8.217056350E0
1.404073308E1,5.765710144E0,-6.287075958E0,-9.154962158E-1,8.579561230E0
1.405079208E1,6.127657471E0,-6.512956238E0,-1.086291046E0,9.008152600E0
1.406085108E1,6.426735535E0,-6.703959045E0,-1.142873383E0,9.356930912E0
1.407091008E1,6.429878998E0,-6.863527222E0,-1.005758514E0,9.458482967E0
1.408096908E1,6.393953705E0,-7.034172363E0,-7.039860535E-1,9.531936906E0
1.409102808E1,6.553372192E0,-7.314838715E0,-3.137475586E-1,9.826087219E0
1.410108708E1,6.707102509E0,-7.653434601E0,1.760339355E-1,1.017797982E1
1.411114608E1,6.742878113E0,-7.889942780E0,5.575904846E-1,1.039367642E1
1.412120508E1,6.998247070E0,-7.858059082E0,8.223898315E-1,1.055466151E1
1.413126408E1,7.571554871E0,-7.830067291E0,1.106499023E0,1.094818419E1
1.414132308E1,8.147557068E0,-7.933352509E0,1.396745453E0,1.145738478E1
1.415138208E1,8.719517670E0,-8.147108002E0,1.350641327E0,1.200956241E1
1.416144108E1,9.340276794E0,-8.279283142E0,1.075513458E0,1.252773041E1
1.417150008E1,9.626182251E0,-8.368347931E0,7.485932922E-1,1.277705067E1
1.418155908E1,9.753118286E0,-8.498128052E0,2.947370911E-1,1.293941137E1
1.419161808E1,9.868079224E0,-8.618477783E0,-2.273771667E-1,1.310377225E1
1.420167708E1,9.812993774E0,-8.615184631E0,-7.141648865E-1,1.307770181E1
1.421173608E1,9.566007385E0,-8.355474701E0,-1.098864899E0,1.274872381E1
1.422179508E1,9.584718475E0,-8.031847687E0,-1.452878723E0,1.258921213E1
1.423185408E1,9.968670044E0,-7.968828735E0,-1.692979431E0,1.287411330E1
1.424191308E1,1.035801041E1,-8.200995941E0,-1.662442932E0,1.331572118E1
1.425197208E1,1.039423508E1,-8.512498169E0,-1.371298370E0,1.350493270E1
1.426203108E1,1.022029678E1,-8.892408142E0,-1.055754547E0,1.358837763E1
1.427209008E1,9.915231171E0,-9.447902985E0,-7.288343811E-1,1.371516969E1
1.428214908E1,9.533375244E0,-1.006327332E1,-2.062710571E-1,1.386352268E1
1.429220808E1,9.141490173E0,-1.051308792E1,3.613485718E-1,1.393637087E1
1.430226708E1,8.674611053E0,-1.062430664E1,9.204359436E-1,1.374670764E1
1.431232608E1,8.256231079E0,-1.033660492E1,1.328487396E0,1.329569974E1
1.432238408E1,7.904013519E0,-9.516610107E0,1.562151489E0,1.246914652E1
1.433244308E1,7.625742188E0,-8.441994781E0,1.624272308E0,1.149162653E1
1.434250208E1,7.609426117E0,-7.360942841E0,1.652862854E0,1.071535351E1
1.435256108E1,7.901319122E0,-6.597979431E0,1.595831451E0,1.041685435E1
1.436262008E1,8.283624115E0,-6.214327240E0,1.434916077E0,1.045443808E1
1.437267908E1,8.553363190E0,-6.026467896E0,1.307081909E0,1.054451517E1
1.438273808E1,8.685837708E0,-6.106102295E0,1.237626343E0,1.068924604E1
1.439279708E1,8.863667908E0,-6.391858063E0,1.220412140E0,1.099590215E1
1.440285608E1,9.052724762E0,-6.918762360E0,1.204245758E0,1.145736907E1
1.441291508E1,9.001830597E0,-7.490273895E0,1.194515991E0,1.177132217E1
1.442297408E1,8.738228760E0,-7.987539825E0,1.077309723E0,1.188772605E1
1.443303308E1,8.342152405E0,-8.292006683E0,9.761201477E-1,1.180261378E1
1.444309208E1,7.734715576E0,-8.339008942E0,8.741821289E-1,1.140741380E1
1.445315108E1,7.116650848E0,-8.269703064E0,8.300239563E-1,1.094183019E1
1.446321008E1,6.648424530E0,-8.101602631E0,8.229885864E-1,1.051260311E1
1.447326908E1,6.339167633E0,-7.773484955E0,7.214996338E-1,1.005647435E1
1.448332808E1,6.148763580E0,-7.316036224E0,6.921606445E-1,9.581793463E0
1.449338708E1,6.060596924E0,-6.910529480E0,7.734416199E-1,9.224124062E0
1.450344625E1,6.014193420E0,-6.609804840E0,9.922865295E-1,8.991366697E0
1.451350525E1,5.961053925E0,-6.418203278E0,1.339264984E0,8.861214810E0
1.452356425E1,5.851332092E0,-6.261778564E0,1.556014252E0,8.710289226E0
1.453362325E1,5.738017731E0,-6.194718018E0,1.597028961E0,8.593595307E0
1.454368225E1,5.670358429E0,-6.416407013E0,1.561552734E0,8.704119175E0
1.455374125E1,5.596112823E0,-6.625821533E0,1.594933319E0,8.818265250E0
1.456380025E1,5.463787994E0,-6.588399353E0,1.610351257E0,8.709375205E0
1.457385925E1,5.293891296E0,-6.409671021E0,1.494342499E0,8.446432806E0
1.458391825E1,5.184917908E0,-6.186036072E0,1.351389771E0,8.183927560E0
1.459397725E1,5.059179382E0,-5.989195404E0,1.245709534E0,7.938359393E0
1.460403625E1,4.881349182E0,-5.844596100E0,1.053808594E0,7.687482420E0
1.461409525E1,4.666845245E0,-5.734574890E0,9.024732971E-1,7.448439552E0
1.462415325E1,4.440066833E0,-5.719755707E0,7.637118530E-1,7.281006429E0
1.463421225E1,4.271816711E0,-5.769452362E0,6.427633667E-1,7.207506040E0
1.464427125E1,4.298610992E0,-6.099515991E0,7.062313843E-1,7.495392889E0
1.465433025E1,4.258943481E0,-6.539301453E0,9.201365662E-1,7.857971390E0
1.466438925E1,3.921395416E0,-6.704258423E0,1.117875366E0,7.846914575E0
1.467444825E1,3.646417236E0,-6.644682312E0,1.275198212E0,7.685980235E0
1.468450725E1,3.585942993E0,-6.674919434E0,1.326840820E0,7.692466650E0
1.469456625E1,3.741619263E0,-6.912026367E0,1.362466736E0,7.976975543E0
1.470462525E1,4.004772034E0,-7.277117157E0,1.474733276E0,8.436200057E0
1.471468425E1,4.270918579E0,-7.650889893E0,1.433868256E0,8.878785944E0
1.472474325E1,4.429738312E0,-8.196654968E0,1.232087860E0,9.398179328E0
1.473480225E1,4.505929871E0,-8.843459930E0,9.857002258E-1,9.974055969E0
1.474486125E1,4.518054657E0,-9.528734894E0,5.478607178E-1,1.055981808E1
1.475492025E1,4.456981659E0,-1.025188110E1,1.826202393E-2,1.117882307E1
1.476497925E1,4.462071075E0,-1.093506042E1,-1.933978271E-1,1.181198660E1
1.477503825E1,4.415667572E0,-1.140777740E1,-4.805007935E-2,1.223265361E1
1.478509725E1,4.065695343E0,-1.188408691E1,1.463955688E-1,1.256116364E1
1.479515625E1,3.560196533E0,-1.237536530E1,5.041516113E-1,1.288715773E1
1.480521525E1,3.181484070E0,-1.257924133E1,9.740245056E-1,1.301183604E1
1.481527425E1,3.307072906E0,-1.275946655E1,1.468146973E0,1.326258547E1
1.482533325E1,3.855831757E0,-1.310195435E1,2.039957886E0,1.380905769E1
1.483539225E1,4.489613800E0,-1.335492828E1,2.729424133E0,1.435132390E1
1.484545125E1,5.017715607E0,-1.349773132E1,3.064726868E0,1.472272976E1
1.485551025E1,5.333409119E0,-1.372645569E1,2.881807251E0,1.500552070E1
1.486556925E1,5.159321136E0,-1.419677765E1,2.499801636E0,1.531065310E1
1.487562825E1,4.260889435E0,-1.464090408E1,2.064656525E0,1.538746430E1
1.488568725E1,3.386856995E0,-1.467952377E1,1.604513397E0,1.515036903E1
1.489574625E1,3.397634583E0,-1.421728500E1,1.600172424E0,1.470495377E1
1.490580525E1,4.539909210E0,-1.255020172E1,1.931433563E0,1.348513161E1
1.491586325E1,5.519472198E0,-1.002929398E1,1.715881805E0,1.157564518E1
1.492592225E1,6.343209229E0,-7.726183319E0,1.649420013E0,1.013167303E1
1.493598125E1,7.132517853E0,-5.935307465E0,1.522933044E0,9.403191516E0
1.494604025E1,7.892337799E0,-4.814438324E0,9.045689392E-1,9.289028866E0
1.495609925E1,8.710386658E0,-4.385280762E0,1.401086426E-1,9.753007409E0
1.496615825E1,9.193731537E0,-4.496649170E0,-7.069798279E-1,1.025886806E1
1.497621725E1,9.183552704E0,-4.837939453E0,-1.806293793E0,1.053593829E1
1.498627625E1,9.004075928E0,-5.360951843E0,-2.778372345E0,1.084124259E1
1.499633525E1,8.827443237E0,-6.029311981E0,-3.339255981E0,1.119941907E1
1.500639425E1,8.632398834E0,-6.620133362E0,-3.568728790E0,1.144903055E1
1.501645325E1,8.345744934E0,-6.939419403E0,-3.650009766E0,1.145118210E1
1.502651225E1,8.117319946E0,-6.981931000E0,-3.461401978E0,1.125253515E1
1.503657125E1,7.930807800E0,-6.832092590E0,-2.967878265E0,1.088041832E1
1.504663025E1,7.825127563E0,-6.658303986E0,-2.259251862E0,1.051997397E1
1.505668925E1,7.735014954E0,-6.526577911E0,-1.298549652E0,1.020357324E1
1.506674825E1,7.611222382E0,-6.334527283E0,-3.394940186E-1,9.908188443E0
1.507680725E1,7.507039032E0,-6.308481445E0,4.535568237E-1,9.816225699E0
1.508686625E1,7.304360504E0,-6.419400787E0,1.032852173E0,9.779016947E0
1.509692525E1,6.929240570E0,-6.533463593E0,1.410067749E0,9.627502919E0
1.510698425E1,6.438560944E0,-6.509214020E0,1.575773163E0,9.290209645E0
1.511704325E1,5.769302673E0,-6.359375610E0,1.477277985E0,8.712569181E0
1.512710225E1,5.275778961E0,-6.137686615E0,1.138532410E0,8.173206022E0
1.513716125E1,4.998106384E0,-5.895190887E0,7.732919312E-1,7.767388457E0
1.514722025E1,4.838837585E0,-5.658383331E0,4.843927002E-1,7.460984345E0
1.515727925E1,4.802313538E0,-5.513933716E0,2.772235107E-1,7.317276352E0
1.516733825E1,4.926854553E0,-5.498066711E0,1.568737793E-1,7.384256410E0
1.517739725E1,5.085674286E0,-5.575156403E0,9.190887451E-2,7.546846964E0
1.518745625E1,5.258714447E0,-5.639073486E0,2.859054565E-2,7.710644904E0
1.519751425E1,5.422922974E0,-5.678291931E0,2.290237427E-2,7.851854389E0
1.520757325E1,5.560935974E0,-5.708529053E0,-7.484436035E-4,7.969398560E0
1.521763225E1,5.642516327E0,-5.778283997E0,-1.407073975E-1,8.077521589E0
1.522769125E1,5.643264771E0,-5.845045166E0,-3.887416077E-1,8.134009485E0
1.523775025E1,5.620961151E0,-5.775439911E0,-7.441026306E-1,8.093491160E0
1.524780925E1,5.752088470E0,-5.673501892E0,-1.064885559E0,8.149179514E0
1.525786825E1,5.980812836E0,-5.667813721E0,-1.100212097E0,8.312923746E0
1.526792725E1,6.214925995E0,-5.646408234E0,-1.058748322E0,8.463343256E0
1.527798625E1,6.400090942E0,-5.636229401E0,-1.113534393E0,8.600477008E0
1.528804525E1,6.608457642E0,-5.823489990E0,-1.288370819E0,8.901946272E0
1.529810425E1,6.737040253E0,-6.259233856E0,-1.526974640E0,9.321875958E0
1.530816325E1,6.867419128E0,-6.815776520E0,-1.757644958E0,9.833899067E0
1.531822225E1,7.175777893E0,-7.446115723E0,-1.859582977E0,1.050687758E1
1.532828125E1,7.575297089E0,-8.170459442E0,-1.671873322E0,1.126661856E1
1.533834025E1,7.957751770E0,-8.875493317E0,-1.373244324E0,1.199941644E1
1.534839925E1,8.306227112E0,-9.396260376E0,-1.121018829E0,1.259125892E1
1.535845825E1,8.560248871E0,-9.712103577E0,-8.427474976E-1,1.297355156E1
1.536851725E1,8.603508911E0,-9.811945953E0,-5.519023132E-1,1.306136460E1
1.537857625E1,8.637637939E0,-9.757758636E0,-3.201841736E-1,1.303553454E1
1.538863525E1,8.738977203E0,-9.713899841E0,-2.751278687E-1,1.306924895E1
1.539869425E1,8.819360046E0,-9.705666962E0,-2.930905151E-1,1.311743057E1
1.540875325E1,8.929081879E0,-9.760303345E0,-2.380050659E-1,1.323059602E1
1.541881225E1,9.064999237E0,-9.957892456E0,-2.227368164E-1,1.346786713E1
1.542887125E1,9.198072510E0,-1.040022263E1,-1.451980591E-1,1.388489291E1
1.543893025E1,9.103618927E0,-1.093341385E1,-0.000000000E0,1.422727718E1
1.544898925E1,8.866062927E0,-1.141780655E1,1.806742859E-1,1.445704055E1
1.545904825E1,8.651558990E0,-1.187705154E1,2.496807861E-1,1.469612761E1
1.546910725E1,8.276888123E0,-1.223555603E1,3.174897766E-1,1.477553749E1
1.547916525E1,7.697892151E0,-1.228704895E1,4.999603271E-1,1.450789702E1
1.548922425E1,7.054679718E0,-1.191612030E1,7.996371460E-1,1.387089934E1
1.549928258E1,6.369853821E0,-1.115450409E1,1.100212097E0,1.289218623E1
1.550934158E1,5.789660339E0,-9.964778137E0,1.374591522E0,1.160631173E1
1.551940058E1,5.544320526E0,-8.620573425E0,1.527723083E0,1.036280435E1
1.552945958E1,5.623056793E0,-7.350614319E0,1.581012268E0,9.388817729E0
1.553951858E1,5.851032715E0,-6.323600006E0,1.290017395E0,8.711294149E0
1.554957758E1,6.226002960E0,-5.583988037E0,7.713459778E-1,8.398750495E0
1.555963658E1,6.735543365E0,-5.297633514E0,3.394940186E-1,8.575996821E0
1.556969558E1,6.950047302E0,-5.583239594E0,1.014889526E-1,8.915493361E0
1.557975458E1,6.607559509E0,-6.283034363E0,-2.487826538E-1,9.121307816E0
1.558981358E1,6.336473236E0,-7.004084930E0,-8.015830994E-1,9.478957445E0
1.559987258E1,6.286776581E0,-7.782466278E0,-1.232536926E0,1.008015319E1
1.560993158E1,6.226901093E0,-8.476872253E0,-1.411714325E0,1.061247369E1
1.561999058E1,6.103557587E0,-8.890761566E0,-1.320703583E0,1.086477401E1
1.563004958E1,6.041287079E0,-9.177864532E0,-1.048419800E0,1.103764155E1
1.564010858E1,6.229296112E0,-9.517508240E0,-5.755531311E-1,1.138939658E1
1.565016758E1,6.436315613E0,-9.774823151E0,8.068222046E-2,1.170383851E1
1.566022658E1,6.422394562E0,-9.723928986E0,6.991960144E-1,1.167436602E1
1.567028558E1,6.276597748E0,-9.450298004E0,1.280437317E0,1.141680040E1
1.568034458E1,6.157445526E0,-9.068891144E0,1.889969788E0,1.112343957E1
1.569040358E1,6.029611359E0,-8.577762451E0,2.533930664E0,1.078679871E1
1.570046258E1,5.897735596E0,-8.023016052E0,3.084485779E0,1.042430450E1
1.571052158E1,5.675298157E0,-7.467521210E0,3.382216644E0,9.970570275E0
1.572058058E1,5.404810638E0,-7.038363647E0,3.478017426E0,9.531376925E0
1.573063958E1,5.040617981E0,-6.761439514E0,3.391048279E0,9.089780105E0
1.574069858E1,4.708907776E0,-6.467450867E0,3.116369476E0,8.585656170E0
1.575075658E1,4.656367035E0,-6.235732727E0,2.726430359E0,8.246183306E0
1.576081558E1,4.759203186E0,-6.159990234E0,2.296823730E0,8.116088584E0
1.577087458E1,4.949607239E0,-6.164031830E0,1.851200409E0,8.119165177E0
1.578093358E1,4.912634125E0,-6.143075409E0,1.390907593E0,7.987864136E0
1.579099258E1,4.747677155E0,-5.865253143E0,9.086105347E-1,7.600474058E0
1.580105158E1,4.747976532E0,-5.487438812E0,4.138893127E-1,7.268188924E0
1.581111058E1,4.838238831E0,-5.166506195E0,-2.709365845E-2,7.078281946E0
1.582116958E1,4.808151398E0,-5.102888489E0,-3.951782227E-1,7.022389666E0
1.583122858E1,4.665797424E0,-5.242098999E0,-6.911128235E-1,7.051730600E0
1.584128758E1,4.572990417E0,-5.420378265E0,-7.466473389E-1,7.130934311E0
1.585134658E1,4.643194427E0,-5.662125549E0,-5.289999390E-1,7.341577566E0
1.586140558E1,4.759053497E0,-5.889802094E0,-1.884580994E-1,7.574554465E0
1.587146458E1,4.874912567E0,-5.999074860E0,6.990463257E-2,7.730365992E0
1.588152358E1,4.891228638E0,-6.114335175E0,1.932481384E-1,7.832404296E0
1.589158258E1,4.825066223E0,-6.351142731E0,1.969903564E-1,7.978538917E0
1.590164158E1,4.697232056E0,-6.656956787E0,1.669029236E-1,8.149044069E0
1.591170058E1,4.698579254E0,-6.956034851E0,1.315763855E-1,8.395259389E0
1.592175958E1,4.810247040E0,-7.370373230E0,1.366658020E-1,8.802247195E0
1.593181858E1,4.979844360E0,-7.882009277E0,1.686991882E-1,9.324879598E0
1.594187758E1,5.285808105E0,-8.387059021E0,2.820135498E-1,9.917764768E0
1.595193658E1,5.745202789E0,-8.810378723E0,5.498066711E-1,1.053244586E1
1.596199558E1,6.118376770E0,-9.244775391E0,7.783813477E-1,1.111333811E1
1.597205458E1,6.269562378E0,-9.874515839E0,1.046324158E0,1.174343517E1
1.598211358E1,6.235283661E0,-1.062595322E1,1.420545959E0,1.240191900E1
1.599217258E1,6.077212372E0,-1.114417557E1,1.846110992E0,1.282705286E1
1.600223158E1,5.757477264E0,-1.133577713E1,2.414479065E0,1.294133288E1
1.601228958E1,5.360203400E0,-1.125913651E1,3.019071808E0,1.283022720E1
1.602234858E1,5.236410828E0,-1.112217133E1,3.554658051E0,1.279680770E1
1.603240758E1,5.369933167E0,-1.117156860E1,3.864064636E0,1.298349424E1
1.604246658E1,5.658982086E0,-1.156031021E1,3.607647858E0,1.336712286E1
1.605252558E1,6.027815094E0,-1.213975525E1,2.897524567E0,1.386015371E1
1.606258458E1,6.509064331E0,-1.257594818E1,2.185605011E0,1.432826788E1
1.607264358E1,6.881639557E0,-1.268372406E1,1.765428772E0,1.453790073E1
1.608270258E1,6.855294342E0,-1.242506195E1,1.605411530E0,1.428126644E1
1.609276158E1,6.723119202E0,-1.186462738E1,1.542841644E0,1.372406919E1
1.610282058E1,6.641239471E0,-1.103954315E1,1.646426239E0,1.298800578E1
1.611287958E1,6.139931946E0,-9.708061981E0,2.004182281E0,1.166027351E1
1.612293858E1,5.649701385E0,-8.118966522E0,2.572400665E0,1.022027340E1
1.613299758E1,5.683980103E0,-6.773414612E0,2.917283478E0,9.311139468E0
1.614305658E1,6.014193420E0,-5.717660065E0,2.785707092E0,8.753417796E0
1.615311558E1,6.571185150E0,-5.134173431E0,2.151775360E0,8.612220869E0
1.616317458E1,7.336393890E0,-4.798122253E0,1.045126648E0,8.828190199E0
1.617323358E1,7.946824493E0,-4.435276794E0,-4.571493530E-1,9.112227242E0
1.618329258E1,8.361761627E0,-4.281097412E0,-2.171983337E0,9.641802953E0
1.619335158E1,8.581055603E0,-4.488116913E0,-3.852987671E0,1.042224653E1
1.620341058E1,8.494834900E0,-4.947810974E0,-5.126688995E0,1.108719953E1
1.621346958E1,8.146209869E0,-5.454357605E0,-5.953719177E0,1.146985284E1
1.622352858E1,7.844886475E0,-5.908962250E0,-6.081852722E0,1.155192673E1
1.623358758E1,7.521858215E0,-6.413263550E0,-5.505700836E0,1.131463840E1
1.624364658E1,7.275470581E0,-6.795568542E0,-4.383933563E0,1.087800981E1
1.625370558E1,7.012168121E0,-6.927743683E0,-2.880460052E0,1.026942960E1
1.626376358E1,6.841073914E0,-7.003037109E0,-1.347348175E0,9.882214739E0
1.627382258E1,6.675667877E0,-7.107370148E0,8.053253174E-2,9.751191594E0
1.628388158E1,6.498735809E0,-7.191046143E0,1.407822418E0,9.794216442E0
1.629394058E1,6.358028412E0,-7.152426453E0,2.644999695E0,9.928632979E0
1.630399958E1,6.316564636E0,-6.976991272E0,3.730093231E0,1.012378346E1
1.631405858E1,6.331683197E0,-6.684798889E0,4.333189087E0,1.017611301E1
1.632411758E1,6.531218262E0,-6.287375336E0,4.340224457E0,1.005114167E1
1.633417658E1,6.994654541E0,-5.764812012E0,3.734583893E0,9.803334460E0
1.634423558E1,7.437433777E0,-5.256918182E0,2.620151367E0,9.477119982E0
1.635429458E1,7.582482147E0,-4.856650543E0,1.267414398E0,9.093262851E0
1.636435358E1,7.465575256E0,-4.573289795E0,-1.472937012E-1,8.756225722E0
1.637441258E1,7.183262329E0,-4.595294037E0,-1.422491913E0,8.645199143E0
1.638447158E1,6.778054962E0,-4.947212219E0,-2.397713928E0,8.727311722E0
1.639453058E1,6.415359192E0,-5.485792236E0,-2.893632660E0,8.923220270E0
1.640458958E1,6.236630859E0,-6.063441010E0,-2.498454437E0,9.050036239E0
1.641464858E1,6.080655212E0,-6.446793823E0,-1.545985107E0,8.995865070E0
1.642470758E1,6.139782257E0,-6.510411530E0,-5.688171387E-1,8.966935786E0
1.643476658E1,6.431375885E0,-6.422843628E0,1.664538574E-1,9.090831806E0
1.644482558E1,6.740034027E0,-6.277196503E0,4.561015320E-1,9.221674643E0
1.645488458E1,6.926695862E0,-6.047723694E0,4.346960449E-1,9.205598193E0
1.646494358E1,7.032675476E0,-5.934559021E0,3.031196594E-1,9.207029741E0
1.647500258E1,7.110064545E0,-5.890101471E0,2.698887634E-1,9.236836748E0
1.648506158E1,7.019203491E0,-5.800587616E0,3.240760803E-1,9.111589304E0
1.649512058E1,6.897057495E0,-5.747597809E0,3.632945251E-1,8.985336141E0
1.650517871E1,6.882687378E0,-5.748495941E0,3.055146790E-1,8.972732602E0
1.651523771E1,6.999893646E0,-5.848787384E0,1.966909790E-1,9.123897866E0
1.652529671E1,7.149881744E0,-6.031856689E0,5.927673340E-2,9.354550647E0
1.653535571E1,7.259603577E0,-6.150859222E0,-1.851649475E-1,9.516785136E0
1.654541471E1,7.452552338E0,-6.272256775E0,-4.406835938E-1,9.750689382E0
1.655547371E1,7.701334991E0,-6.528823242E0,-6.191125488E-1,1.011530493E1
1.656553271E1,8.002957764E0,-6.950795746E0,-6.646179199E-1,1.062085738E1
1.657559171E1,8.165070648E0,-7.368277588E0,-6.167175293E-1,1.101545432E1
1.658565071E1,8.254434814E0,-7.711214447E0,-6.053411865E-1,1.131215984E1
1.659570971E1,8.417745209E0,-7.960296478E0,-6.659651184E-1,1.160466561E1
1.660576871E1,8.627010040E0,-8.167315979E0,-7.056326294E-1,1.190076762E1
1.661582771E1,8.765921173E0,-8.221353607E0,-7.873626709E-1,1.204375229E1
1.662588671E1,8.778644714E0,-8.000862122E0,-8.036787415E-1,1.190480144E1
1.663594571E1,8.815168762E0,-7.688611450E0,-6.959028625E-1,1.171777398E1
1.664600471E1,9.045539703E0,-7.484735413E0,-3.719764709E-1,1.174654925E1
1.665606371E1,9.333690491E0,-7.554190979E0,1.477427673E-1,1.200855559E1
1.666612271E1,9.608518982E0,-8.019124146E0,6.846762085E-1,1.253390484E1
1.667618171E1,9.655371552E0,-8.763526154E0,1.058898010E0,1.308231078E1
1.668624071E1,9.567204895E0,-9.633666687E0,1.431922302E0,1.365244831E1
1.669629971E1,9.520502014E0,-1.056218582E1,1.849853210E0,1.433951480E1
1.670635871E1,9.272467804E0,-1.121827148E1,2.312241669E0,1.473684959E1
1.671641771E1,8.658444672E0,-1.145792313E1,2.584525452E0,1.459220471E1
1.672647671E1,7.852520599E0,-1.105511078E1,2.799328766E0,1.384607510E1
1.673653571E1,7.033723297E0,-1.011042526E1,3.007695465E0,1.267833563E1
1.674659371E1,6.451134796E0,-8.961714020E0,3.061433716E0,1.145870127E1
1.675665271E1,6.085295563E0,-7.843988342E0,2.882106628E0,1.033757775E1
1.676671171E1,6.204896851E0,-6.946454773E0,2.753823395E0,9.712750492E0
1.677677071E1,6.664890289E0,-6.408174133E0,2.894381104E0,9.688286756E0
1.678682971E1,7.190896454E0,-6.238427124E0,3.195554810E0,1.004183924E1
1.679688871E1,7.562723236E0,-6.390660553E0,3.393293610E0,1.046660244E1
1.680694771E1,7.682623901E0,-6.740632782E0,3.473676453E0,1.079468705E1
1.681700671E1,7.509733429E0,-7.312144318E0,3.388503571E0,1.101569368E1
