"Time (s)","Acceleration x (m/s^2)","Acceleration y (m/s^2)","Acceleration z (m/s^2)","Absolute acceleration (m/s^2)"
5.287291657E-3,-9.090596008E-1,5.140610046E0,8.734187164E0,1.017537648E1
1.534629165E-2,-8.491841125E-1,4.742288361E0,7.659122772E0,9.048346489E0
2.540429166E-2,-9.351054382E-1,4.367767181E0,7.091054077E0,8.380624097E0
3.546229168E-2,-1.018631744E0,4.065395966E0,7.058721313E0,8.209177886E0
4.552129167E-2,-1.156944122E0,3.807182922E0,7.309150543E0,8.322069645E0
5.557929166E-2,-1.120120697E0,3.738026733E0,7.607629852E0,8.550061181E0
6.563829168E-2,-8.394543457E-1,3.756288757E0,7.834408264E0,8.728822468E0
7.569629166E-2,-4.872367859E-1,3.824846191E0,8.128845978E0,8.996943092E0
8.575429168E-2,4.191284180E-3,3.982019348E0,8.558901672E0,9.439877833E0
9.581329167E-2,5.587879944E-1,4.061054993E0,8.929680634E0,9.825660685E0
1.058712917E-1,1.019380188E0,4.165388031E0,9.222322083E0,1.017058592E1
1.159302917E-1,1.244811401E0,4.246369629E0,9.419162750E0,1.040681687E1
1.259882917E-1,1.293759613E0,4.120182037E0,9.328451385E0,1.027957777E1
1.360462917E-1,1.370549927E0,3.805686035E0,9.266480255E0,1.011085108E1
1.461052917E-1,1.462758179E0,3.483106842E0,9.116192780E0,9.867961570E0
1.561632917E-1,1.442699890E0,3.219055939E0,8.863518219E0,9.539688639E0
1.662222917E-1,1.349443817E0,2.899021454E0,8.809031525E0,9.371465222E0
1.762802917E-1,1.157692566E0,2.693349152E0,8.843459930E0,9.316714296E0
1.863382917E-1,8.592132568E-1,2.655777283E0,8.892857208E0,9.320638912E0
1.963972917E-1,3.779640198E-1,2.698288879E0,9.059610443E0,9.460452476E0
2.064552917E-1,-4.400848389E-2,2.621648254E0,9.231303406E0,9.596454496E0
2.165142917E-1,-6.750961304E-2,2.361788635E0,9.268875275E0,9.565283684E0
2.265722917E-1,2.785707092E-1,2.047292633E0,8.809480591E0,9.048533420E0
2.366302917E-1,8.454418945E-1,1.800755310E0,8.034242706E0,8.276868221E0
2.466892917E-1,1.404978333E0,1.488055573E0,7.439679108E0,7.716028689E0
2.567472917E-1,1.551822968E0,1.084644470E0,7.716603241E0,7.945475047E0
2.668062917E-1,1.484762421E0,1.076112213E0,9.139244843E0,9.321391164E0
2.768642917E-1,1.787283325E0,1.366807709E0,1.049886749E1,1.073726053E1
2.869222917E-1,2.932851105E0,1.599423981E0,1.091111023E1,1.141105162E1
2.969812917E-1,3.544179840E0,1.630708923E0,1.061996567E1,1.131388939E1
3.070392917E-1,2.940784607E0,2.094893646E0,1.012928604E1,1.075356821E1
3.170972917E-1,3.080144806E0,2.566413116E0,9.943073273E0,1.072093627E1
3.271562917E-1,3.325185242E0,2.281256104E0,1.066786606E1,1.140457595E1
3.372142917E-1,3.606300659E0,1.869761810E0,1.095931000E1,1.168793777E1
3.472732917E-1,4.128564606E0,1.864223328E0,9.803413696E0,1.079941176E1
3.573312917E-1,3.789220276E0,2.003882904E0,8.511899414E0,9.530276419E0
3.673892917E-1,2.738704834E0,1.880689087E0,8.027806091E0,8.688104871E0
3.774482917E-1,2.226020966E0,9.602531433E-1,7.290738831E0,7.683236827E0
3.875062917E-1,2.369572449E0,-3.165916443E-1,5.942791901E0,6.405613119E0
3.975652917E-1,2.343975677E0,-1.293310547E0,4.912035370E0,5.594190346E0
4.076232917E-1,1.688339081E0,-1.788929901E0,4.718338165E0,5.321040696E0
4.176812917E-1,1.108594666E0,-1.519639893E0,5.889353027E0,6.182456358E0
4.277402917E-1,1.632505188E0,-3.017724609E-1,7.975415039E0,8.146372497E0
4.377982917E-1,1.850901031E0,6.198609924E-1,9.690997467E0,9.885620577E0
4.478572917E-1,2.142794037E0,8.268804932E-1,1.003183868E1,1.029140831E1
4.579152917E-1,3.220103760E0,4.016148376E-1,9.899813232E0,1.041809314E1
4.679732917E-1,3.635340271E0,3.005749512E-1,8.528365173E0,9.275724054E0
4.780322917E-1,3.945195923E0,5.592370605E-1,7.065906372E0,8.111988031E0
4.880902917E-1,3.712130585E0,6.987469482E-1,5.873935089E0,6.983643333E0
4.981492917E-1,3.503614197E0,1.095721436E-1,4.639601898E0,5.814913952E0
5.082072917E-1,3.590283966E0,-4.041595459E-1,3.497177582E0,5.028293442E0
5.182652917E-1,2.568658447E0,-4.671784973E-1,2.733765106E0,3.780176401E0
5.283242917E-1,1.563498688E0,-3.462300110E-1,2.621947632E0,3.072297634E0
5.383822917E-1,3.249742126E0,-5.459147644E-1,1.925745392E0,3.816718765E0
5.484410417E-1,5.217699738E0,-1.412911835E0,2.246079254E0,5.853681100E0
5.584990417E-1,5.979765015E0,-1.460063782E0,4.976850586E0,7.915707020E0
5.685570417E-1,6.442303162E0,-4.944218445E-1,8.495283966E0,1.067321754E1
5.786160417E-1,6.622528381E0,-3.508703613E-1,1.282009048E1,1.443383914E1
5.886740417E-1,6.559659119E0,-1.361269226E0,1.536300247E1,1.676019172E1
5.987330417E-1,5.604345703E0,-2.372117157E0,1.451531525E1,1.573944114E1
6.087910417E-1,4.551584930E0,-2.868784332E0,1.175565399E1,1.292835062E1
6.188490417E-1,3.272195435E0,-2.755619659E0,8.899742889E0,9.874519035E0
6.289080417E-1,2.909200287E0,-2.768043823E0,5.922134857E0,7.155221463E0
6.389660417E-1,2.088457031E0,-2.412383423E0,2.806663513E0,4.249541931E0
6.490250417E-1,1.648222504E0,-1.614841919E0,2.233355713E-1,2.318238690E0
6.590830417E-1,2.040706329E0,-1.435664520E0,-1.215622101E0,2.775491313E0
6.691410417E-1,2.551893311E0,-2.107317810E0,-1.646725616E0,3.696573153E0
6.792000417E-1,2.885699158E0,-3.611689453E0,-2.034120026E0,5.050663779E0
6.892580417E-1,2.327809296E0,-5.771248627E0,-2.259102173E0,6.620388920E0
6.993170417E-1,2.320324860E0,-8.506510620E0,-1.224603424E0,8.901925855E0
7.093750417E-1,3.287613373E0,-9.635313263E0,9.247769165E-1,1.022266480E1
7.194330417E-1,4.368365936E0,-9.452243958E0,2.288441162E0,1.066135544E1
7.294920417E-1,5.220244446E0,-9.347312164E0,2.926414490E0,1.109896835E1
7.395500417E-1,6.060297546E0,-9.404044189E0,3.509601746E0,1.172521036E1
7.496090417E-1,7.372917938E0,-9.712702332E0,3.856580200E0,1.278943769E1
7.596670417E-1,8.748407593E0,-1.043614792E1,4.041595459E0,1.420501012E1
7.697250417E-1,1.003543121E1,-1.101708984E1,4.196972351E0,1.548227132E1
7.797840417E-1,1.186223236E1,-1.154938293E1,4.197571106E0,1.707982453E1
7.898420417E-1,1.405562119E1,-1.196402069E1,3.715423737E0,1.882824080E1
7.999010417E-1,1.603465576E1,-1.238554413E1,3.173550568E0,2.050812795E1
8.099590417E-1,1.976998810E1,-1.355446335E1,3.295097809E0,2.419573466E1
8.200170417E-1,1.998284546E1,-1.148097519E1,3.831432495E0,2.336250798E1
8.300760417E-1,2.024360321E1,-9.678722992E0,3.944746857E0,2.278249717E1
8.401340417E-1,2.361070129E1,-9.818681946E0,3.853436737E0,2.585963467E1
8.501930417E-1,2.597293900E1,-8.377478943E0,3.830534363E0,2.755809694E1
8.602510417E-1,2.745530640E1,-6.832242279E0,3.496728516E0,2.850790231E1
8.703090417E-1,2.672796890E1,-5.875881042E0,2.945424957E0,2.752427706E1
8.803680417E-1,2.443234268E1,-5.140310669E0,2.289039917E0,2.507193384E1
8.904260417E-1,2.190005859E1,-4.896617432E0,1.386865997E0,2.248361239E1
9.004850417E-1,1.965876938E1,-4.965474243E0,-1.199006653E-1,2.027652643E1
9.105430417E-1,1.765039581E1,-4.860093384E0,-4.517605591E-1,1.831286618E1
9.206010417E-1,1.590532471E1,-4.427492981E0,1.496887207E-4,1.651005900E1
9.306600417E-1,1.516705994E1,-3.570824432E0,-7.388635254E-1,1.559924401E1
9.407180417E-1,1.539877808E1,-2.856958923E0,-1.568887482E0,1.573994881E1
9.507770417E-1,1.527618301E1,-1.821412354E0,-2.204914856E0,1.554158808E1
9.608350417E-1,1.489612335E1,-3.369493103E-1,-1.817819824E0,1.501041287E1
9.708930417E-1,1.400951706E1,8.087681580E-1,-2.122286682E0,1.419241963E1
9.809520417E-1,1.157138718E1,8.170010376E-1,-6.181844788E0,1.314456910E1
9.910100417E-1,7.666008453E0,-8.104147339E-1,-1.035486694E1,1.290921094E1
1.001069042E0,6.286177826E0,-1.901046753E0,-7.865992584E0,1.024713861E1
1.011127042E0,7.200476532E0,-1.916165314E0,-2.701282654E0,7.925621728E0
1.021185042E0,6.585704956E0,-2.417023773E0,3.841012573E-1,7.025741773E0
1.031244042E0,4.638853455E0,-3.503913574E0,4.179309082E-1,5.828467891E0
1.041302042E0,3.859573975E0,-3.723057861E0,-1.571731567E-2,5.362622319E0
1.051361042E0,3.677103424E0,-3.369343414E0,2.794688416E-1,4.995164409E0
1.061419042E0,2.620600433E0,-3.368894348E0,3.043171692E-1,4.278972388E0
1.071477042E0,3.309617615E0,-3.210823059E0,3.686833191E-1,4.625892440E0
1.081536042E0,4.721481628E0,-3.581901398E0,-2.170486450E-2,5.926455728E0
1.091594042E0,5.258564758E0,-3.338657227E0,6.128256226E-1,6.258968816E0
1.101653042E0,5.265600128E0,-4.033063202E0,8.569679260E-1,6.687790183E0
1.111711042E0,6.037993927E0,-4.083508301E0,9.107061768E-1,7.345869346E0
1.121770042E0,6.932533722E0,-3.804338837E0,1.775008850E0,8.104546515E0
1.131828042E0,7.230563965E0,-4.200864258E0,1.957928467E0,8.588468993E0
1.141886042E0,7.867788849E0,-4.400998077E0,1.495540009E0,9.138245202E0
1.151945042E0,7.953859863E0,-5.186863861E0,1.197360077E0,9.570847120E0
1.162003042E0,8.685688019E0,-5.126988373E0,5.716612244E-1,1.010217713E1
1.172061042E0,8.734935608E0,-4.321363678E0,-7.200027466E-1,9.771984858E0
1.182120042E0,9.228159943E0,-1.944606171E0,-1.311722260E0,9.521609337E0
1.192178042E0,1.061532532E1,-2.385738831E0,-1.496887207E-4,1.088011403E1
1.202237042E0,1.188139252E1,-5.121449890E0,1.189725952E0,1.299277434E1
1.212295042E0,1.193049042E1,-4.681065674E0,4.020339661E0,1.343175746E1
1.222353042E0,1.113399673E1,-2.680924988E0,4.534520416E0,1.231726908E1
1.232412042E0,1.150582352E1,-5.075944519E0,4.376299438E0,1.331544909E1
1.242470042E0,9.587263184E0,-6.216572571E0,1.823807373E0,1.157098368E1
1.252529042E0,7.603588257E0,-5.298232269E0,-5.813909912E-1,9.285679030E0
1.262587042E0,6.509812775E0,-5.445825348E0,-1.530417480E0,8.624201629E0
1.272646042E0,6.206992493E0,-4.752167816E0,-1.406624908E0,7.942823704E0
1.282704042E0,6.241271210E0,-4.733007660E0,-9.138496399E-1,7.886060422E0
1.292762042E0,5.619314575E0,-6.368207245E0,-8.643026733E-1,8.536848301E0
1.302821042E0,6.509812775E0,-6.870113525E0,-1.069825287E0,9.524738755E0
1.312879042E0,9.739646301E0,-6.700216827E0,1.250649261E0,1.188771379E1
1.322938042E0,1.352542374E1,-6.740632782E0,3.606001282E0,1.553629502E1
1.332996042E0,1.706601105E1,-5.830375671E0,4.207300873E0,1.851873090E1
1.343054042E0,1.473266327E1,-4.997657318E0,1.409019928E0,1.562092452E1
1.353113042E0,1.111693222E1,-6.263724518E0,7.765850830E-1,1.278372055E1
1.363171042E0,1.024828857E1,-7.885302429E0,-6.309379578E-1,1.294617688E1
1.373230042E0,1.230411346E1,-6.674021301E0,-8.232879639E-1,1.402182483E1
1.383288042E0,1.276829819E1,-3.801195374E0,4.713697815E-1,1.333044314E1
1.393346042E0,1.288251068E1,-2.826272736E0,1.032702484E0,1.322926201E1
1.403405042E0,1.398032776E1,-3.321742401E0,3.644171906E0,1.482442328E1
1.413463042E0,1.628089371E1,-3.973038025E0,5.081932068E0,1.751224042E1
1.423522042E0,1.700134552E1,-3.648961945E0,3.548820190E0,1.774696587E1
1.433580042E0,1.401310959E1,-2.048639832E0,-5.718109131E-2,1.416218328E1
1.443638042E0,1.210308151E1,-7.390132141E-1,-2.388433228E0,1.235861383E1
1.453697042E0,1.219753510E1,-5.212161255E-1,-2.474504242E0,1.245691374E1
1.463755042E0,1.147753235E1,-9.005273438E-1,-1.961071930E0,1.167863440E1
1.473814042E0,9.621092834E0,-7.635621643E-1,-1.104702759E0,9.714361672E0
1.483872042E0,6.948999481E0,-9.939331055E-2,-1.743873596E-1,6.951897854E0
1.493930042E0,3.728895721E0,-9.333091736E-1,9.954299927E-2,3.845209763E0
1.503989042E0,2.125280457E0,-1.416953430E0,5.481600952E-1,2.612480341E0
1.514047042E0,1.374441833E0,-6.409671021E-1,7.129673767E-1,1.675783894E0
1.524106042E0,1.800006866E0,4.055067444E-1,8.598120117E-1,2.035617138E0
1.534164042E0,3.031945038E0,1.584754486E0,6.382727051E-1,3.480162286E0
1.544222458E0,5.174290009E0,3.966900787E0,-1.182091827E0,6.626229700E0
1.554281458E0,2.212249603E0,4.052223358E0,-2.855761414E0,5.428621897E0
1.564339458E0,-1.883084106E-1,1.693877563E0,-2.945424957E0,3.402970678E0
1.574398458E0,-8.375083923E-1,2.748284912E-1,-1.690584412E0,1.906574588E0
1.584456458E0,-1.094224548E0,-8.939410400E-1,6.616241455E-1,1.560193724E0
1.594514458E0,-1.301393738E0,-2.543510742E0,3.623514862E0,4.614426564E0
1.604573458E0,3.757186890E-1,-5.102888489E0,6.015690308E0,7.897415105E0
1.614631458E0,4.263284454E0,-6.234684906E0,7.753276978E0,1.082405627E1
1.624690458E0,9.417216797E0,-6.502328339E0,4.827760620E0,1.242060863E1
1.634748458E0,1.075573334E1,-7.182364197E0,-1.366807709E0,1.300539574E1
1.644806458E0,1.252220993E1,-6.148913269E0,-4.624183960E0,1.469686882E1
1.654865458E0,1.538844955E1,-6.247408447E0,-4.638853455E0,1.724393961E1
1.664923458E0,1.726389954E1,-8.437055054E0,-5.052892456E0,1.986851397E1
1.674982458E0,1.715836899E1,-1.120524857E1,-6.411616974E0,2.147268157E1
1.685040458E0,1.613554596E1,-1.190279800E1,-7.498057709E0,2.140685201E1
1.695099458E0,1.730760864E1,-1.317245773E1,-8.533304901E0,2.336416599E1
1.705157458E0,1.887634644E1,-1.501437744E1,-1.198841995E1,2.693455397E1
1.715215458E0,1.847997070E1,-1.720896378E1,-1.673040894E1,3.029132441E1
1.725274458E0,1.365610199E1,-1.412417862E1,-1.353949448E1,2.385999694E1
1.735332458E0,1.104044128E1,-1.074435699E1,-1.078447357E1,1.880524983E1
1.745391458E0,8.094118195E0,-9.404792633E0,-7.004084930E0,1.424858167E1
1.755449458E0,3.011886749E0,-9.203910370E0,-1.889520721E0,9.866798693E0
1.765507458E0,-1.293310547E-1,-8.578061829E0,-1.691482544E-2,8.579053407E0
1.775566458E0,6.641688538E-1,-5.347330170E0,7.578739929E-1,5.441455063E0
1.785624458E0,6.221063232E-1,-4.641996918E0,1.633103943E0,4.960058482E0
1.795683458E0,4.541555786E-1,-5.995033264E0,6.590794373E-1,6.048228404E0
1.805741458E0,1.056802368E0,-8.791218567E0,-1.011147308E0,8.912057788E0
1.815799458E0,2.670596466E0,-1.182421143E1,-1.631756744E0,1.223138142E1
1.825858458E0,5.474116516E0,-1.116378479E1,-2.075134735E0,1.260564265E1
1.835916458E0,7.181765442E0,-8.324189758E0,-2.624791718E0,1.130307133E1
1.845975458E0,8.265960846E0,-5.805677032E0,-3.920497284E0,1.083523389E1
1.856033458E0,1.221938965E1,-2.621648254E0,-5.739963684E0,1.375258907E1
1.866091458E0,1.766820877E1,9.604028320E-1,-7.426656189E0,1.918966380E1
1.876150458E0,1.445035034E1,-8.373587036E-1,-6.757996674E0,1.597448946E1
1.886208458E0,4.943320312E0,-2.009571075E0,-6.649322662E0,8.525742401E0
1.896267458E0,8.155041504E-1,-1.935325470E0,-7.216193848E0,7.515582834E0
1.906325458E0,-4.742138672E-1,-2.643951874E0,-6.920408936E0,7.423437219E0
1.916383458E0,6.643185425E-1,-3.247047729E0,-5.400020599E0,6.335997203E0
1.926442458E0,4.059408417E0,-3.515738983E0,-4.306993561E0,6.883996719E0
1.936500458E0,6.324198761E0,-3.572920074E0,-3.071163483E0,7.886272438E0
1.946559458E0,7.282655640E0,-3.694617004E0,-2.355801086E0,8.499239186E0
1.956617458E0,7.030579834E0,-3.303031311E0,-2.401905212E0,8.130695991E0
1.966675458E0,5.611830139E0,-3.110681305E0,-2.729124756E0,6.972596190E0
1.976734458E0,3.171604614E0,-3.622616730E0,-2.577190704E0,5.461166517E0
1.986792458E0,1.311722260E0,-4.209695892E0,-2.124681702E0,4.894530327E0
1.996851458E0,4.773573303E-1,-4.192930756E0,-2.314636688E0,4.813115554E0
2.006909458E0,1.354682922E-1,-4.366120605E0,-2.428100739E0,4.997702872E0
2.016968458E0,3.152444458E-1,-4.914729767E0,-2.344574432E0,5.454445619E0
2.027026458E0,9.723779297E-1,-4.964127045E0,-2.756068726E0,5.760554745E0
2.037084458E0,1.512604523E0,-5.169350281E0,-2.914888458E0,6.124273793E0
2.047143458E0,1.910626831E0,-5.646408234E0,-3.258573761E0,6.793432401E0
2.057201458E0,3.410956879E0,-5.694308624E0,-3.627107391E0,7.564105074E0
2.067260458E0,6.349346466E0,-4.789739685E0,-4.552033997E0,9.163886747E0
2.077318458E0,9.115743713E0,-2.718945923E0,-5.699248352E0,1.108922370E1
2.087376458E0,1.031070877E1,2.529739380E-2,-6.862778778E0,1.238584223E1
2.097435458E0,1.056592804E1,1.543141022E0,-8.049810333E0,1.337234332E1
2.107493458E0,1.110615463E1,6.330335999E-1,-9.178912354E0,1.442219936E1
2.117552458E0,1.159638519E1,-9.919871521E-1,-9.241332550E0,1.486144055E1
2.127610458E0,1.212313980E1,-2.619851990E0,-8.652906189E0,1.512305950E1
2.137668458E0,1.205278610E1,-5.204527130E0,-8.429121552E0,1.560150139E1
2.147727458E0,1.023810974E1,-8.678502960E0,-8.590785370E0,1.593539764E1
2.157785458E0,7.653135223E0,-1.201611237E1,-8.313112793E0,1.649440146E1
2.167844458E0,5.364244995E0,-1.443358521E1,-7.845634918E0,1.728170980E1
2.177902458E0,3.421884155E0,-1.511436951E1,-7.062762909E0,1.703044558E1
2.187960458E0,2.469714203E0,-1.261516663E1,-5.755381622E0,1.408425841E1
2.198019458E0,1.941911774E0,-9.750274200E0,-5.046755219E0,1.114937696E1
2.208077458E0,1.237925720E0,-8.715176697E0,-5.098846893E0,1.017275796E1
2.218136458E0,1.967807922E0,-6.609954529E0,-4.583169250E0,8.280652587E0
2.228194458E0,3.253484344E0,-4.400698700E0,-3.484603729E0,6.487971376E0
2.238252458E0,4.325105896E0,-5.826783142E0,-1.687291260E0,7.450160709E0
2.248311458E0,8.103249207E0,-6.509064331E0,-5.224136353E-2,1.039390664E1
2.258369458E0,1.142005188E1,-6.228697357E0,-3.867956543E-1,1.301398734E1
2.268428458E0,1.347348175E1,-7.253466339E0,-1.644330597E0,1.538997425E1
2.278486458E0,1.524639496E1,-8.095764771E0,-3.417243805E0,1.759748623E1
2.288545458E0,1.633807480E1,-8.049361267E0,-5.134921875E0,1.892332760E1
2.298603458E0,1.556463318E1,-7.013365631E0,-6.449637909E0,1.824946390E1
2.308661458E0,1.339235046E1,-3.710184631E0,-9.131910095E0,1.662865908E1
2.318720458E0,9.575288086E0,1.523232422E0,-1.449585571E1,1.743950148E1
2.328778458E0,6.584657135E0,1.289867706E0,-1.136047577E1,1.319400917E1
2.338837458E0,7.494465179E0,-1.814826050E0,-7.568411407E0,1.080469588E1
2.348895458E0,8.558153229E0,-2.567610626E0,-4.891228638E0,1.018620285E1
2.358953458E0,7.257208557E0,-2.242337036E0,-3.109483795E0,8.207559984E0
2.369012458E0,5.626649323E0,-4.241130524E0,-1.692081299E0,7.246344585E0
2.379070458E0,5.437442780E0,-8.953481140E0,-1.444945221E0,1.057442553E1
2.389129458E0,3.917204132E0,-1.378318771E1,5.836363220E-1,1.434089896E1
2.399187458E0,1.767823792E0,-1.562974777E1,2.407892761E0,1.591264164E1
2.409245458E0,8.192463684E-1,-1.448597626E1,2.221530304E0,1.467821071E1
2.419304458E0,1.407073975E-1,-1.199665283E1,1.099613342E0,1.204776441E1
2.429362458E0,6.256988525E-2,-1.077758789E1,5.489085388E-1,1.079173834E1
2.439421458E0,6.965016174E-1,-1.084734283E1,7.791297913E-1,1.089756873E1
2.449479458E0,1.710043945E0,-1.016955231E1,1.738185425E0,1.045778815E1
2.459537458E0,4.133204956E0,-9.368717651E0,2.030527496E0,1.043931490E1
2.469596458E0,5.548511810E0,-9.339827728E0,1.671723633E0,1.099149786E1
2.479654458E0,4.923561401E0,-1.007704468E1,1.869761810E0,1.137032522E1
2.489713458E0,3.512146454E0,-1.077968353E1,1.350791016E0,1.141759108E1
2.499771458E0,2.019151154E0,-1.087503525E1,-1.342707825E-1,1.106170835E1
2.509829458E0,6.689588928E-1,-1.064870590E1,-1.028810577E0,1.071918349E1
2.519888458E0,-9.750723267E-1,-1.084973785E1,-1.159039764E0,1.095495097E1
2.529946458E0,-1.814526672E0,-9.927056580E0,-1.303489380E0,1.017536456E1
2.540005458E0,-2.190095673E0,-9.341025238E0,-1.672921143E0,9.739093218E0
2.550063417E0,-1.992656250E0,-8.655600586E0,-2.455793152E0,9.215260194E0
2.560122417E0,-1.222956848E0,-8.203690338E0,-2.587668915E0,8.688624116E0
2.570180417E0,8.385562134E-1,-8.371192017E0,-2.029479675E0,8.654410439E0
2.580238417E0,4.026177521E0,-9.139843597E0,-1.172661438E0,1.005594258E1
2.590297417E0,5.773044891E0,-9.460626526E0,-6.285429382E-1,1.110074627E1
2.600355417E0,7.710016937E0,-9.011111298E0,-1.307081909E0,1.193117560E1
2.610414417E0,1.062954575E1,-8.146808624E0,-1.058643539E1,1.707133117E1
2.620472417E0,1.172945847E1,-1.189306824E1,-9.821825409E0,1.937765523E1
2.630530417E0,7.035070496E0,-1.417881500E1,-8.560099182E0,1.799461891E1
2.640589417E0,1.106169708E1,-6.795119476E0,-3.598516846E-1,1.298708144E1
2.650647417E0,1.324655365E1,-2.771486664E0,4.442312164E0,1.424382179E1
2.660706417E0,1.446202606E1,-3.668720856E0,2.956950989E0,1.521030143E1
2.670764417E0,1.213676147E1,-2.533631287E0,-1.076261902E-1,1.239886487E1
2.680822417E0,1.020951920E1,-9.958790588E-1,-4.136947174E0,1.106075898E1
2.690881417E0,8.390052795E0,1.437011719E-2,-8.972192230E0,1.228386852E1
2.700939417E0,6.208788757E0,-8.333171082E-1,-1.021445892E1,1.198243074E1
2.710998417E0,4.690795441E0,-2.004481659E0,-7.315736847E0,8.918604947E0
2.721056417E0,3.871549072E0,-3.474275208E0,-4.523593140E0,6.893647462E0
2.731114417E0,2.474653931E0,-6.032904510E0,-3.766916656E0,7.530571692E0
2.741173417E0,1.034498749E0,-8.328680420E0,-4.298161926E0,9.429278930E0
2.751231417E0,9.569599915E-1,-9.639803925E0,-4.707410889E0,1.077039040E1
2.761290417E0,2.575244751E0,-9.886490936E0,-4.434528351E0,1.113730803E1
2.771348417E0,3.972439270E0,-1.048674271E1,-3.067720642E0,1.162596045E1
2.781407417E0,4.219874725E0,-1.259660522E1,7.957452393E-1,1.330845657E1
2.791465417E0,3.235072632E0,-1.475796066E1,5.763015747E0,1.617020248E1
2.801523417E0,2.920127563E0,-1.533965103E1,8.041128387E0,1.756393420E1
2.811582417E0,2.679428101E0,-1.626637390E1,7.988887024E0,1.831929504E1
2.821640417E0,3.648961945E0,-1.480660950E1,6.824608154E0,1.670706092E1
2.831699417E0,4.069437561E0,-9.879156189E0,3.692221985E0,1.130444834E1
2.841757417E0,3.115022278E-1,-9.229507141E0,5.653742981E-1,9.252052951E0
2.851815417E0,-1.557361450E0,-1.095886093E1,-1.269210663E0,1.114149466E1
2.861874417E0,-1.234183502E0,-1.155477173E1,-1.227746887E0,1.168517527E1
2.871932417E0,-4.846920776E-1,-1.167467239E1,-7.982899475E-1,1.171196690E1
2.881991417E0,-7.276368713E-1,-1.365655106E1,-9.762698364E-1,1.371072372E1
2.892049417E0,-6.728507996E-1,-1.542632080E1,2.124082947E-1,1.544244861E1
2.902107417E0,1.025367737E0,-1.424961777E1,-2.832559662E0,1.456455903E1
2.912166417E0,2.200424194E0,-1.316946396E1,-1.116468292E1,1.740479222E1
2.922224417E0,4.081712036E0,-1.172272247E1,-1.565399734E1,1.997824387E1
2.932283417E0,6.689888306E0,-1.348515747E1,-1.360924942E1,2.029324388E1
2.942341417E0,5.442981262E0,-1.786954010E1,-8.008047180E0,2.032425467E1
2.952399417E0,4.166585541E0,-1.925910049E1,-5.680237885E0,2.050703512E1
2.962458417E0,5.027894440E0,-1.713367035E1,-5.024900665E0,1.854971722E1
2.972516417E0,5.429958344E0,-1.431084045E1,-4.447700958E0,1.593946818E1
2.982575417E0,4.521946564E0,-1.208167603E1,-4.601580963E0,1.369632957E1
2.992633417E0,3.489393768E0,-9.486522675E0,-4.243974609E0,1.096272328E1
3.002691417E0,2.234104156E0,-8.272996216E0,-3.311862946E0,9.187062857E0
3.012750417E0,6.137237549E-1,-7.857310638E0,-2.537672882E0,8.279720465E0
3.022808417E0,-3.086581421E-1,-7.440577240E0,-1.719624023E0,7.642942254E0
3.032867417E0,-4.772076416E-1,-6.857090607E0,-9.199868774E-1,6.934968967E0
3.042925417E0,-3.367996216E-1,-6.609056396E0,-3.001258850E-1,6.624434767E0
3.052984417E0,1.396595764E-1,-6.973997498E0,-3.921844482E-2,6.975506002E0
3.063042417E0,1.565744019E-1,-7.249275055E0,-6.644682312E-1,7.281347567E0
3.073100417E0,-9.145980835E-2,-7.952362976E0,-1.554667053E0,8.103420972E0
3.083159417E0,4.763095093E-1,-6.585255890E0,-2.276466064E0,6.983893157E0
3.093217417E0,4.421804810E-1,-1.583556976E0,-1.875300293E0,2.493978240E0
3.103276417E0,2.289938049E0,-2.883004761E0,-2.063009949E0,4.220372350E0
3.113334417E0,5.777086487E0,-5.721402283E0,-3.499123535E0,8.851725135E0
3.123392417E0,7.616162109E0,-8.013286285E0,-3.676953735E0,1.165069402E1
3.133451417E0,6.993457031E0,-9.181157684E0,-3.262615356E0,1.199361316E1
3.143509417E0,5.572462006E0,-9.148675232E0,-2.726430359E0,1.105368779E1
3.153568417E0,3.992796936E0,-7.819589081E0,-2.904559937E0,9.247965678E0
3.163626417E0,2.786754913E0,-6.719826050E0,-3.654500427E0,8.141095655E0
3.173684417E0,1.874701538E0,-5.934559021E0,-4.832251282E0,7.879349534E0
3.183743417E0,1.139580231E0,-6.029461670E0,-5.730233917E0,8.395750823E0
3.193801417E0,5.493576050E-1,-7.267986145E0,-6.201154633E0,9.569730151E0
3.203860417E0,3.213816833E-1,-9.033265228E0,-6.763235779E0,1.128913305E1
3.213918417E0,1.556762695E-1,-9.942773895E0,-7.278614044E0,1.232319805E1
3.223976417E0,2.559677124E-2,-9.491612091E0,-7.440277863E0,1.206022761E1
3.234035417E0,-1.287322998E-2,-8.049960022E0,-6.539151764E0,1.037123560E1
3.244093417E0,-5.104385376E-2,-6.378236389E0,-4.524940338E0,7.820459704E0
3.254152417E0,-3.947291565E-1,-4.232298889E0,-1.021475830E0,4.371679067E0
3.264210417E0,-1.332528992E0,-3.317102051E0,2.597398682E0,4.418741839E0
3.274268417E0,-2.041155396E0,-3.104244690E0,5.278323669E0,6.454715424E0
3.284327417E0,-2.523901520E0,-2.807711334E0,6.839277649E0,7.812108587E0
3.294385417E0,-3.164269867E0,-2.625091095E0,6.425837402E0,7.628570860E0
3.304444417E0,-3.562890930E0,-1.632505188E0,4.990172882E0,6.345162753E0
3.314502417E0,-3.351530457E0,-1.489552460E0,3.554508362E0,5.107450697E0
3.324561417E0,-2.808310089E0,-3.132236481E0,1.406325531E0,4.435680605E0
3.334619417E0,-1.850601654E0,-4.462819519E0,3.644920349E-1,4.845032403E0
3.344677417E0,-5.605842590E-1,-6.976392517E0,-5.951623535E-1,7.024138772E0
3.354736417E0,9.324110413E-1,-8.930878143E0,-5.119354248E-1,8.994000925E0
3.364794417E0,1.440604248E0,-9.048683167E0,-1.331331482E0,9.258857984E0
3.374853417E0,1.770967255E0,-8.016280060E0,-9.731263733E-1,8.267045781E0
3.384911417E0,2.050885162E0,-6.982080688E0,-2.264640656E0,7.621297658E0
3.394969417E0,2.502196655E0,-6.201154633E0,-4.119882660E0,7.854217976E0
3.405028417E0,1.928290100E0,-5.522316284E0,-4.311184845E0,7.266401766E0
3.415086417E0,1.655108185E0,-6.825805664E0,-7.196135559E0,1.005561401E1
3.425145417E0,1.310075684E0,-1.250364853E1,-1.435050797E1,1.907864261E1
3.435203417E0,1.977238312E0,-2.451077957E1,-3.764132446E1,4.496172921E1
3.445261417E0,-1.313817902E0,-2.921190353E1,-2.432905746E1,3.803898609E1
3.455320417E0,-2.899769897E0,-3.250460632E1,-1.626921799E1,3.646430517E1
3.465378417E0,-2.655777283E0,-3.019730438E1,-1.066681824E1,3.213582668E1
3.475437417E0,-2.418670349E0,-2.451137833E1,-5.560337219E0,2.525024720E1
3.485495417E0,-3.418740692E0,-1.766985535E1,-3.183729401E0,1.827697209E1
3.495553417E0,-3.890260162E0,-1.243943207E1,-1.194665680E0,1.308819393E1
3.505612417E0,-3.789968719E0,-9.430988159E0,4.237687683E-1,1.017285508E1
3.515670417E0,-4.171076202E0,-8.293802948E0,1.663490753E0,9.431449810E0
3.525729417E0,-4.898114319E0,-8.426277466E0,2.701432343E0,1.011392172E1
3.535787417E0,-5.497318268E0,-9.156908112E0,4.202061768E0,1.147722952E1
3.545845167E0,-6.015989685E0,-1.029244675E1,5.418432312E0,1.309526635E1
3.555904167E0,-5.699847107E0,-1.119836288E1,6.260131989E0,1.403854839E1
3.565962167E0,-4.905449066E0,-1.107367218E1,6.261628876E0,1.363442856E1
3.576021167E0,-4.071682892E0,-9.924811249E0,6.016139374E0,1.229936636E1
3.586079167E0,-3.027903442E0,-8.632249146E0,5.582191772E0,1.071656613E1
3.596138167E0,-1.453776855E0,-6.991810455E0,4.256548462E0,8.313668588E0
3.606196167E0,-2.704875183E-1,-5.520220642E0,2.792892151E0,6.192434578E0
3.616254167E0,3.637435913E-2,-3.959116974E0,6.017486572E-1,4.004751147E0
3.626313167E0,1.043330383E-1,-2.299817505E0,-4.872367859E-1,2.353177771E0
3.636371167E0,7.861651611E-1,-2.189047852E0,5.864804077E-1,2.398738299E0
3.646430167E0,4.010160828E-1,-2.495610352E0,5.471122742E-1,2.586158689E0
3.656488167E0,-1.241218872E0,-3.156336365E0,1.975891113E-1,3.397370306E0
3.666546167E0,-2.964435425E0,-4.268074493E0,5.807922363E-2,5.196894310E0
3.676605167E0,-4.300107880E0,-5.855523376E0,-5.792953491E-2,7.265083456E0
3.686663167E0,-5.316494293E0,-7.542814636E0,-1.502874756E-1,9.229396000E0
3.696722167E0,-6.892417145E0,-9.386081543E0,9.520202637E-2,1.164529966E1
3.706780167E0,-8.173004150E0,-1.109777206E1,4.755610657E-1,1.379074690E1
3.716838167E0,-8.624914398E0,-1.195713501E1,1.131497040E0,1.478656524E1
3.726897167E0,-9.890233154E0,-1.271276367E1,1.891167297E0,1.621750862E1
3.736955167E0,-1.012928604E1,-1.252265900E1,2.029180298E0,1.623382262E1
3.747014167E0,-8.750652924E0,-1.118908218E1,1.326691132E0,1.426637992E1
3.757072167E0,-7.418423309E0,-9.465715942E0,2.386038208E-1,1.202870377E1
3.767130167E0,-6.500532074E0,-7.903714142E0,-4.168830872E-1,1.024204110E1
3.777189167E0,-5.696703644E0,-6.841672668E0,3.787124634E-2,8.902940612E0
3.787247167E0,-5.163063354E0,-6.234834595E0,1.217568054E0,8.186138137E0
3.797306167E0,-5.089865570E0,-5.986501007E0,1.823957062E0,8.066705969E0
3.807364167E0,-5.656138000E0,-6.092181244E0,1.941762085E0,8.536803230E0
3.817423167E0,-6.727160797E0,-7.012018433E0,1.699865112E0,9.864716736E0
3.827481167E0,-7.483986969E0,-7.965535583E0,1.440604248E0,1.102429856E1
3.837539167E0,-7.254963226E0,-7.921976166E0,1.257984009E0,1.081548527E1
3.847598167E0,-6.256689148E0,-7.333998871E0,1.002016296E0,9.692148121E0
3.857656167E0,-5.739215240E0,-6.821764069E0,7.732919312E-1,8.948353871E0
3.867715167E0,-6.022426300E0,-6.611900482E0,5.795947266E-1,8.962297505E0
3.877773167E0,-6.415808258E0,-6.585704956E0,3.291654968E-1,9.200133439E0
3.887831167E0,-6.561754761E0,-6.768624573E0,1.175056458E-1,9.427868886E0
3.897890167E0,-6.521338806E0,-7.266040192E0,1.082249451E-1,9.763959880E0
3.907948167E0,-6.184988251E0,-7.962092743E0,2.582130432E-1,1.008541890E1
3.918007167E0,-5.714516602E0,-8.412057037E0,4.816983032E-1,1.018088586E1
3.928065167E0,-5.194198608E0,-8.464747467E0,7.949967957E-1,9.963115415E0
3.938123167E0,-4.765789490E0,-8.358618164E0,1.129700775E0,9.687903329E0
3.948182167E0,-4.476890259E0,-8.166567535E0,1.421743469E0,9.421078823E0
3.958240167E0,-4.375700684E0,-7.945477295E0,1.648521881E0,9.219272765E0
3.968299167E0,-4.411625977E0,-7.764653320E0,1.778900757E0,9.105864750E0
3.978357167E0,-4.479584656E0,-7.699089661E0,1.776505737E0,9.082875807E0
3.988415167E0,-4.617447968E0,-7.735014954E0,1.728305969E0,9.172694456E0
3.998474167E0,-4.803361359E0,-7.921527100E0,1.646276550E0,9.409202857E0
4.008532167E0,-4.989873505E0,-8.300988007E0,1.491947479E0,9.799548294E0
4.018591167E0,-5.135670319E0,-8.734336853E0,1.242865448E0,1.020825472E1
4.028649167E0,-5.108726349E0,-9.081464996E0,7.403604126E-1,1.044606265E1
4.038708167E0,-4.775818634E0,-9.366472321E0,-5.119354248E-1,1.052622084E1
4.048766167E0,-3.991898804E0,-9.517957306E0,-3.279530182E0,1.082968539E1
4.058824167E0,-3.355272675E0,-9.470056915E0,-5.491779785E0,1.144986803E1
4.068883167E0,-3.828289032E0,-9.496402130E0,-3.398532715E0,1.078830269E1
4.078941167E0,-4.509522400E0,-9.528884583E0,-1.161434784E0,1.060586462E1
4.089000167E0,-4.878654785E0,-9.420360260E0,-2.242337036E-1,1.061106690E1
4.099058167E0,-5.070855103E0,-9.466015320E0,1.173559570E-1,1.073931050E1
4.109116167E0,-5.260510712E0,-9.631271667E0,3.802093506E-1,1.098084359E1
4.119175167E0,-5.460345154E0,-9.825118561E0,6.438111877E-1,1.125889945E1
4.129233167E0,-5.638624420E0,-1.012210098E1,7.560777283E-1,1.161131634E1
4.139292167E0,-5.850134583E0,-1.040665924E1,4.543052673E-1,1.194692531E1
4.149350167E0,-6.136938171E0,-1.055964111E1,-4.053570557E-1,1.222016141E1
4.159408167E0,-6.819518738E0,-1.062894699E1,-2.011067963E0,1.278767939E1
4.169467167E0,-7.727081451E0,-1.079764618E1,-3.325484619E0,1.368779744E1
4.179525167E0,-8.651109924E0,-1.111109436E1,-3.012784882E0,1.440052060E1
4.189584167E0,-9.312285004E0,-1.134086655E1,-2.425705719E0,1.487339754E1
4.199642167E0,-9.614656219E0,-1.132559830E1,-2.600691833E0,1.508225411E1
4.209700167E0,-9.190288696E0,-1.067041077E1,-3.434907074E0,1.449543579E1
4.219759167E0,-8.710536346E0,-1.039707916E1,-4.261338501E0,1.421730299E1
4.229817167E0,-8.766370239E0,-1.080288528E1,-5.772296448E0,1.506223702E1
4.239876167E0,-8.984017639E0,-1.092413315E1,-8.861272888E0,1.669045881E1
4.249934167E0,-8.702602844E0,-1.063837738E1,-8.912915497E0,1.638140507E1
4.259992167E0,-8.111182709E0,-1.028855484E1,-5.442681885E0,1.418691058E1
4.270051167E0,-7.503596191E0,-1.010952713E1,-1.275497589E0,1.265438219E1
4.280109167E0,-7.628586273E0,-1.030217651E1,2.265538788E0,1.301778919E1
4.290168167E0,-7.871830444E0,-1.070858139E1,4.833897858E0,1.414234770E1
4.300226167E0,-7.881709900E0,-1.109118576E1,6.212231598E0,1.495752566E1
4.310284167E0,-8.326884155E0,-1.145462997E1,6.850204926E0,1.573120641E1
4.320343167E0,-8.123756561E0,-1.149669250E1,7.236850891E0,1.582849867E1
4.330401167E0,-8.206384735E0,-1.090886490E1,7.231462097E0,1.544804609E1
4.340460167E0,-8.084089050E0,-9.477990417E0,6.797813873E0,1.419137314E1
4.350518167E0,-6.968459015E0,-8.592431946E0,5.561235352E0,1.238210993E1
4.360577167E0,-5.558540955E0,-7.289391632E0,2.614762573E0,9.532554286E0
4.370635167E0,-3.686533813E0,-7.551346893E0,-2.871628418E0,8.880293983E0
4.380693167E0,-2.474953308E0,-8.585995331E0,-7.045848083E0,1.137930951E1
4.390752167E0,-2.159110107E0,-8.852441254E0,-7.023694153E0,1.150477084E1
4.400810167E0,-2.878364410E0,-8.600365448E0,-2.794089661E0,9.489900134E0
4.410869167E0,-4.072431335E0,-8.152796173E0,2.103126526E-1,9.115756350E0
4.420927167E0,-4.858746185E0,-7.775281219E0,1.689237213E0,9.322871601E0
4.430985167E0,-5.075046387E0,-7.106472015E0,2.388133850E0,9.053243817E0
4.441044167E0,-4.999004517E0,-6.485563202E0,2.868335266E0,8.676400371E0
4.451102167E0,-4.766238556E0,-5.546865234E0,2.543660431E0,7.743058329E0
4.461161167E0,-4.431983643E0,-4.720433807E0,1.075962524E0,6.563739002E0
4.471219167E0,-4.265230408E0,-4.150119781E0,5.236111450E-1,5.974098531E0
4.481277167E0,-4.190236359E0,-3.682342529E0,1.098266144E0,5.685412541E0
4.491336167E0,-4.252955933E0,-3.217109985E0,1.770218811E0,5.618817087E0
4.501394167E0,-4.389322357E0,-2.712958374E0,2.426753540E0,5.702229971E0
4.511453167E0,-4.513414307E0,-2.344424744E0,2.884950714E0,5.847236673E0
4.521511167E0,-4.604574738E0,-2.239942017E0,2.663261719E0,5.771690544E0
4.531569167E0,-4.404440918E0,-2.543660431E0,2.054627380E0,5.485508350E0
4.541628167E0,-4.213138733E0,-3.069067841E0,1.744172974E0,5.496531157E0
4.551686417E0,-3.944297791E0,-3.367996216E0,1.695823517E0,5.456803182E0
4.561745417E0,-3.626957703E0,-3.515738983E0,1.891766052E0,5.393887427E0
4.571803417E0,-3.365900574E0,-3.490591278E0,2.231260071E0,5.337793144E0
4.581861417E0,-3.260070648E0,-3.294499054E0,2.633174286E0,5.330608921E0
4.591920417E0,-3.249742126E0,-2.866838379E0,2.952310638E0,5.243636552E0
4.601978417E0,-3.320993958E0,-2.285597076E0,2.778372345E0,4.896152341E0
4.612037417E0,-3.595373383E0,-1.782942352E0,2.309098206E0,4.630067787E0
4.622095417E0,-4.101171570E0,-1.645827484E0,1.792223053E0,4.768691626E0
4.632153417E0,-4.801714783E0,-2.098785553E0,6.960525513E-1,5.286383906E0
4.642212417E0,-5.667963409E0,-3.598516846E0,-1.858834534E0,6.966376283E0
4.652270417E0,-6.727310486E0,-6.635251923E0,-6.490951996E0,1.146367010E1
4.662329417E0,-8.287516022E0,-1.131631760E1,-1.299238220E1,1.911920399E1
4.672387417E0,-1.255873398E1,-1.931029404E1,-2.645044601E1,3.507471097E1
4.682446417E0,-1.982716919E1,-2.580798203E1,-3.415223007E1,4.717566526E1
4.692504417E0,-1.977762222E1,-2.446572327E1,-2.390079803E1,3.950916479E1
4.702562417E0,-1.659524002E1,-2.109742767E1,-1.428494431E1,3.040662888E1
4.712621417E0,-1.327634171E1,-1.612656464E1,-8.334218903E0,2.248969855E1
4.722679417E0,-9.279952240E0,-9.939480743E0,-5.310656433E0,1.459841987E1
4.732738417E0,-5.744753723E0,-4.490362244E0,-3.453169098E0,8.067832747E0
4.742796417E0,-3.298241272E0,-1.087338867E0,-1.860930176E0,3.940020612E0
4.752854417E0,-1.782792664E0,7.185058594E-1,8.448431396E-1,2.099609555E0
4.762913417E0,-4.427792358E-1,9.608518982E-1,3.952979736E0,4.092106868E0
4.772971417E0,4.113446045E-1,-2.445913696E-1,6.359824677E0,6.377805205E0
4.783030417E0,1.345701599E-1,-2.522404633E0,8.195906525E0,8.576334766E0
4.793088417E0,-1.954485626E0,-6.020180969E0,8.866212616E0,1.089368253E1
4.803146417E0,-4.929848328E0,-9.840536499E0,8.718170471E0,1.404087104E1
4.813205417E0,-7.824379120E0,-1.392224854E1,7.309898987E0,1.756372785E1
4.823263417E0,-1.193213699E1,-1.951387070E1,9.086105347E-1,2.289088500E1
4.833322417E0,-1.803614365E1,-2.718466919E1,-1.789423874E1,3.720903784E1
4.843380417E0,-1.535027893E1,-2.577819397E1,-2.359603180E1,3.816960917E1
4.853438417E0,-7.457941132E0,-1.456291626E1,-4.236041107E0,1.690098992E1
4.863497417E0,-5.804030457E0,-6.686295776E0,5.237608337E0,1.028716977E1
4.873555417E0,-4.585115204E0,-2.804717560E0,5.668113098E0,7.811352515E0
4.883614417E0,-3.072061615E0,-2.531236267E-1,5.758076019E0,6.531238288E0
4.893672417E0,-2.334245911E0,9.987231445E-1,6.070326691E0,6.579894986E0
4.903730417E0,-1.944456482E0,1.372944946E0,5.359904022E0,5.864679016E0
4.913789417E0,-2.100881195E0,1.224154358E0,4.065096588E0,4.736799126E0
4.923847417E0,-2.808459778E0,3.589535522E-1,2.940036163E0,4.081679387E0
4.933906417E0,-4.265978851E0,-1.114432526E0,2.475701752E0,5.056642619E0
4.943964417E0,-5.855822754E0,-2.726879425E0,2.526146851E0,6.935989434E0
4.954022417E0,-7.273674316E0,-4.828209686E0,2.621348877E0,9.115339641E0
4.964081417E0,-8.846304016E0,-6.889573059E0,2.497256927E0,1.148736714E1
4.974139417E0,-1.067535049E1,-8.568930817E0,2.276016998E0,1.387695705E1
4.984198417E0,-1.182451080E1,-9.871821442E0,1.678459625E0,1.549481013E1
4.994256417E0,-1.154788605E1,-1.093730576E1,1.966909790E-1,1.590650863E1
5.004315417E0,-9.711804199E0,-1.106873245E1,-1.388811951E0,1.479069902E1
5.014373417E0,-7.232060852E0,-9.901310120E0,-1.416354675E0,1.234279980E1
5.024431417E0,-5.724695435E0,-8.872349854E0,-6.511459351E-2,1.055911784E1
5.034490417E0,-5.054838409E0,-8.280929718E0,6.414161682E-1,9.722993523E0
5.044548417E0,-4.888085175E0,-7.726931763E0,9.497749329E-1,9.192438390E0
5.054607417E0,-4.649481354E0,-7.357500000E0,1.113534393E0,8.774419750E0
5.064665417E0,-4.183799744E0,-7.103777618E0,1.043180695E0,8.309997756E0
5.074723417E0,-3.530707855E0,-7.006479950E0,7.436535645E-1,7.880969475E0
5.084782417E0,-2.198178864E0,-7.472610626E0,-8.343649292E-1,7.833777168E0
5.094840417E0,-5.155279541E-1,-8.610544281E0,-2.999013519E0,9.132432533E0
5.104899417E0,-1.206640778E0,-9.377399597E0,-2.055076447E0,9.675481609E0
5.114957417E0,-2.614762573E0,-9.774972839E0,-1.090931396E0,1.017728886E1
5.125015417E0,-3.929328918E0,-1.006312363E1,-5.306465149E-1,1.081608379E1
5.135074417E0,-4.927602997E0,-1.001073257E1,-4.080514526E-1,1.116523820E1
5.145132417E0,-5.442981262E0,-9.448801117E0,-5.712121582E-1,1.091934846E1
5.155191417E0,-5.290448456E0,-8.435558167E0,-7.541317749E-1,9.985799977E0
5.165249417E0,-5.020709381E0,-7.320077820E0,-7.631130981E-1,8.909175247E0
5.175307417E0,-4.999752960E0,-6.546935577E0,-2.404000854E-1,8.241218801E0
5.185366417E0,-4.883145447E0,-6.321953430E0,5.417234802E-1,8.006601586E0
5.195424417E0,-4.735702057E0,-6.514153748E0,1.375789032E0,8.170304063E0
5.205483417E0,-4.707261200E0,-6.746470642E0,1.954635315E0,8.455399065E0
5.215541417E0,-4.889881439E0,-6.863377533E0,2.282603302E0,8.730817229E0
5.225599417E0,-5.052443390E0,-7.000342712E0,2.444117432E0,8.972496437E0
5.235658417E0,-5.286706238E0,-7.236252136E0,2.425106964E0,9.284059005E0
5.245716417E0,-5.726192322E0,-7.674540710E0,2.195484467E0,9.823848821E0
5.255775417E0,-6.529122620E0,-8.426576843E0,1.746268616E0,1.080213375E1
5.265833417E0,-7.385791168E0,-9.263187103E0,1.293011169E0,1.191756789E1
5.275891417E0,-7.904163208E0,-1.009680359E1,7.915539551E-1,1.284709292E1
5.285950417E0,-7.977959747E0,-1.075693085E1,-5.483097839E-1,1.340373256E1
5.296008417E0,-7.279961243E0,-1.117845428E1,-7.692054291E0,1.539881083E1
5.306067417E0,-6.519841919E0,-1.163949554E1,-1.408106827E1,1.939749156E1
5.316125417E0,-6.344107361E0,-1.115046249E1,-5.041665802E0,1.378400907E1
5.326183417E0,-5.888155518E0,-1.056113800E1,-5.665718079E-1,1.210491697E1
5.336242417E0,-6.042334900E0,-1.034304153E1,8.499325562E-1,1.200877615E1
5.346300417E0,-6.744375000E0,-1.051623138E1,1.241069183E0,1.255459953E1
5.356359417E0,-7.115603027E0,-1.075498489E1,5.072950745E-1,1.290576828E1
5.366417417E0,-7.077133026E0,-1.088925568E1,-6.129753113E-1,1.300143991E1
5.376476417E0,-6.769971771E0,-1.128428421E1,-1.804497528E0,1.328246209E1
5.386534417E0,-6.432423706E0,-1.209799210E1,-2.180365906E0,1.387412999E1
5.396592417E0,-6.571035461E0,-1.273102570E1,-1.479523315E0,1.440300356E1
5.406651417E0,-6.883884888E0,-1.309327240E1,-1.131646729E0,1.483584435E1
5.416709417E0,-7.368876343E0,-1.320688614E1,-1.487157440E0,1.519650675E1
5.426768417E0,-8.288414154E0,-1.322948914E1,-2.408641205E0,1.579616233E1
5.436826417E0,-1.030726593E1,-1.349803070E1,-5.667364655E0,1.790406618E1
5.446884417E0,-1.171419022E1,-1.289807831E1,-9.279353485E0,1.974054400E1
5.456943417E0,-1.013602203E1,-1.135852982E1,-7.275620270E0,1.687275296E1
5.467001417E0,-8.462053070E0,-1.057969940E1,-2.540516968E0,1.378370807E1
5.477060417E0,-8.028853912E0,-1.030382309E1,1.886676636E0,1.319813677E1
5.487118417E0,-8.018675079E0,-1.033959869E1,5.064268799E0,1.403044082E1
5.497176417E0,-8.099357300E0,-1.044348267E1,6.731501770E0,1.483169023E1
5.507235417E0,-8.495433655E0,-1.037821838E1,7.298971710E0,1.526940725E1
5.517293417E0,-9.045090637E0,-1.011057495E1,7.303462372E0,1.540707477E1
5.527352417E0,-9.310339050E0,-9.443711700E0,7.046446838E0,1.501727395E1
5.537410417E0,-9.434431000E0,-7.890541534E0,5.791007538E0,1.359429668E1
5.547467708E0,-9.212292938E0,-6.170169067E0,3.837270355E0,1.173294385E1
5.557526708E0,-8.369395752E0,-5.277126160E0,9.255253601E-1,9.937376060E0
5.567584708E0,-6.742878113E0,-5.072801056E0,-3.695814514E0,9.211881497E0
5.577643708E0,-5.222340088E0,-5.580096130E0,-7.111860809E0,1.043977361E1
5.587701708E0,-5.311105499E0,-6.278843079E0,-3.552861786E0,8.958489767E0
5.597759708E0,-5.783373413E0,-6.970255280E0,-1.209484863E-1,9.057952044E0
5.607818708E0,-5.738317108E0,-7.466024323E0,1.454076233E0,9.528071164E0
5.617876708E0,-5.240003357E0,-7.475305023E0,2.041305084E0,9.354397192E0
5.627935708E0,-4.737498322E0,-7.066654816E0,2.451152802E0,8.853793011E0
5.637993708E0,-4.518503723E0,-6.499484253E0,2.987786865E0,8.460912587E0
5.648051708E0,-3.802243195E0,-6.267616425E0,3.480711823E0,8.115135473E0
5.658110708E0,-2.062411194E0,-6.566245422E0,2.822680206E0,7.438860291E0
5.668168708E0,-1.007704468E0,-6.492897949E0,7.448510742E-1,6.612714662E0
5.678227708E0,-1.829046478E0,-5.407355347E0,9.198371887E-1,5.781954974E0
5.688285708E0,-2.762804718E0,-4.497696991E0,1.352587280E0,5.449023810E0
5.698343708E0,-3.521726532E0,-3.908073120E0,1.667682037E0,5.518764051E0
5.708402708E0,-4.062252502E0,-3.523073730E0,1.892215118E0,5.700387878E0
5.718460708E0,-4.327800293E0,-3.265309753E0,1.956730957E0,5.763757386E0
5.728519708E0,-4.276007996E0,-3.234024811E0,1.694775696E0,5.622759600E0
5.738577708E0,-4.071233826E0,-3.357068939E0,1.537901917E0,5.496362345E0
5.748635708E0,-3.968996429E0,-3.518732758E0,1.810634766E0,5.604713296E0
5.758694708E0,-4.054169312E0,-3.415746918E0,2.260149994E0,5.762976124E0
5.768752708E0,-4.084855499E0,-3.039130096E0,2.721340942E0,5.773045359E0
5.778811708E0,-3.909120941E0,-2.490970001E0,3.167263641E0,5.614064219E0
5.788869708E0,-3.549868011E0,-1.949246521E0,3.392545166E0,5.283037725E0
5.798927708E0,-2.938539276E0,-1.188229065E0,3.119512939E0,4.447275837E0
5.808986708E0,-2.377206573E0,-4.778063965E-1,2.564467163E0,3.529291979E0
5.819044708E0,-2.286495209E0,-6.870712280E-2,1.817520447E0,2.921671026E0
5.829103708E0,-2.976260834E0,-7.544311523E-2,1.124162292E0,3.182382924E0
5.839161708E0,-3.982468414E0,-4.414320374E-1,-3.686833191E-1,4.023784823E0
5.849220708E0,-5.535339203E0,-1.905387726E0,-3.231779480E0,6.686918654E0
5.859278708E0,-7.206164703E0,-5.329966278E0,-8.747958527E0,1.252454106E1
5.869336708E0,-1.013587234E1,-1.119896164E1,-1.821636887E1,2.366408132E1
5.879395708E0,-1.681932404E1,-2.047202820E1,-3.263543427E1,4.203647427E1
5.889453708E0,-2.418206314E1,-2.728466125E1,-3.449995697E1,5.019434180E1
5.899511708E0,-2.294054489E1,-2.581232300E1,-2.077170502E1,4.029898693E1
5.909570708E0,-1.893427597E1,-2.161011154E1,-1.046997757E1,3.057979983E1
5.919628708E0,-1.460527817E1,-1.531016235E1,-6.647376709E0,2.217888272E1
5.929687708E0,-9.368567963E0,-8.957073669E0,-5.954317932E0,1.426369996E1
5.939745708E0,-5.179828491E0,-3.676654358E0,-4.696932678E0,7.899973864E0
5.949804708E0,-2.290836182E0,-3.821553040E-1,-3.006198578E0,3.798842321E0
5.959862708E0,-9.639953613E-2,1.196312256E0,-5.737568665E-1,1.330282987E0
5.969920708E0,1.118474121E0,1.712888031E0,2.354753265E0,3.119267976E0
5.979979708E0,9.593550110E-1,1.090632019E0,4.778962097E0,4.994829223E0
5.990037708E0,-4.397854614E-1,-1.789229279E0,7.432643738E0,7.657607041E0
6.000096708E0,-3.190465393E0,-6.564748535E0,1.017943176E1,1.252580631E1
6.010154708E0,-6.275998993E0,-1.115884506E1,1.075633209E1,1.672144332E1
6.020212708E0,-9.396110687E0,-1.500300110E1,9.478289795E0,2.008021204E1
6.030271708E0,-1.272848099E1,-1.923979065E1,3.623963928E0,2.335202105E1
6.040329708E0,-1.694191910E1,-2.784509583E1,-2.186428299E1,3.924824652E1
6.050388708E0,-1.581551147E1,-2.436468338E1,-3.130290527E1,4.270409908E1
6.060446708E0,-9.733359375E0,-1.203078186E1,-7.942932587E0,1.739448691E1
6.070504708E0,-7.261549530E0,-5.561684418E0,5.394931183E0,1.061921455E1
6.080563708E0,-4.771178284E0,-2.000889130E0,7.597900085E0,9.192158899E0
6.090621708E0,-2.731669464E0,5.415737915E-1,7.421117706E0,7.926430990E0
6.100680708E0,-1.993404694E0,1.939217377E0,6.869664459E0,7.411242547E0
6.110738708E0,-1.280437317E0,2.118245087E0,5.659730530E0,6.177299705E0
6.120796708E0,-1.555864563E0,1.495989075E0,4.340374146E0,4.847426696E0
6.130855708E0,-3.106939087E0,2.671943665E-1,3.482657776E0,4.674758657E0
6.140913708E0,-5.074148254E0,-1.221909027E0,3.248245239E0,6.147449822E0
6.150972708E0,-7.035818939E0,-3.001707916E0,3.515888672E0,8.418697744E0
6.161030708E0,-8.730594635E0,-5.324876862E0,3.534300385E0,1.081983713E1
6.171088708E0,-9.822124786E0,-7.719147949E0,3.055446167E0,1.286060386E1
6.181147708E0,-1.106618774E1,-9.460776215E0,2.503693542E0,1.477278847E1
6.191205708E0,-1.246577728E1,-1.040112076E1,1.746268616E0,1.632875900E1
6.201264708E0,-1.280587006E1,-1.079375427E1,1.097218323E0,1.678390083E1
6.211322708E0,-1.165880539E1,-1.060529617E1,7.185058594E-1,1.577708150E1
6.221380708E0,-9.011111298E0,-9.707762604E0,2.032772827E-1,1.324696581E1
6.231439708E0,-5.911057892E0,-8.424930267E0,-1.784289551E-1,1.029329356E1
6.241497708E0,-4.006418610E0,-7.470365295E0,3.893403625E-1,8.485831346E0
6.251556708E0,-3.188519440E0,-6.981332245E0,1.057550812E0,7.747520239E0
6.261614708E0,-3.320245514E0,-6.694678345E0,1.383423157E0,7.599776842E0
6.271672708E0,-3.854783936E0,-6.595434723E0,1.529968414E0,7.791015449E0
6.281731708E0,-4.271816711E0,-6.717730408E0,1.611548767E0,8.122401694E0
6.291789708E0,-4.384682007E0,-7.066355438E0,1.644330597E0,8.477183412E0
6.301848708E0,-4.139042816E0,-7.660170593E0,1.542542267E0,8.842472821E0
6.311906708E0,-3.904031525E0,-8.655750275E0,1.225501556E0,9.574201221E0
6.321964708E0,-3.453618164E0,-1.043599823E1,2.902464294E-1,1.099644399E1
6.332023708E0,-1.644180908E0,-1.188782913E1,-1.785636749E0,1.213310805E1
6.342081708E0,-1.196461945E0,-1.189351730E1,-2.119143219E0,1.213993587E1
6.352140708E0,-2.263592834E0,-1.148456772E1,-1.539847870E0,1.180636607E1
6.362198708E0,-3.142565002E0,-1.107232498E1,-1.166224823E0,1.156858572E1
6.372256708E0,-3.656895447E0,-1.037642212E1,-9.012757874E-1,1.103880964E1
6.382315708E0,-3.605701904E0,-9.536219330E0,-7.797285461E-1,1.022489814E1
6.392373708E0,-3.414399719E0,-8.677904205E0,-5.803431702E-1,9.343497473E0
6.402432708E0,-3.560645599E0,-7.991282043E0,-3.308120728E-1,8.754897053E0
6.412490708E0,-3.887715454E0,-7.473508759E0,-2.375559998E-1,8.427579574E0
6.422548708E0,-4.436324615E0,-7.253915405E0,-1.314266968E-1,8.503971882E0
6.432607708E0,-5.293292542E0,-7.471712494E0,1.739382935E-1,9.158367106E0
6.442665708E0,-6.176605682E0,-7.957302704E0,2.447410583E-1,1.007616109E1
6.452724708E0,-7.002288666E0,-8.739126892E0,-3.269201660E-1,1.120318090E1
6.462782708E0,-7.729326782E0,-9.793833618E0,-2.645149384E0,1.275376355E1
6.472840708E0,-7.572003937E0,-1.069989944E1,-7.080126801E0,1.489802964E1
6.482899708E0,-6.682852936E0,-1.053808594E1,-5.578299866E0,1.366854813E1
6.492957708E0,-6.239774323E0,-9.497599640E0,-1.154848480E0,1.142247160E1
6.503016708E0,-5.974376221E0,-8.808432770E0,4.029620361E-1,1.065101110E1
6.513074708E0,-5.648952942E0,-8.455167389E0,7.982899475E-1,1.019989175E1
6.523132708E0,-5.598058777E0,-8.689879303E0,1.217867432E0,1.040843242E1
6.533191708E0,-5.932014313E0,-9.468709717E0,1.576072540E0,1.128402686E1
6.543249708E0,-6.242468719E0,-1.032043854E1,1.633702698E0,1.217164130E1
6.553309083E0,-6.309080200E0,-1.106244553E1,1.470841370E0,1.281973355E1
6.563367083E0,-6.116131439E0,-1.159369080E1,1.113833771E0,1.315527863E1
6.573425083E0,-5.656587067E0,-1.189426575E1,3.456312561E-1,1.317535563E1
6.583484083E0,-5.582042084E0,-1.208990891E1,-1.037791901E0,1.335672502E1
6.593542083E0,-6.776258698E0,-1.213496521E1,-2.622845764E0,1.414405820E1
6.603601083E0,-8.459059296E0,-1.181073944E1,-3.237916718E0,1.488399661E1
6.613659083E0,-9.356892242E0,-1.102996307E1,-3.124153290E0,1.479769751E1
6.623717083E0,-9.862540741E0,-1.027253815E1,-3.494632874E0,1.466312411E1
6.633776083E0,-1.049332901E1,-1.008213409E1,-4.746479645E0,1.530648394E1
6.643834083E0,-1.188767944E1,-1.012778915E1,-8.131240997E0,1.760699054E1
6.653893083E0,-1.228255829E1,-9.722432098E0,-1.041653870E1,1.881199624E1
6.663951083E0,-1.014141083E1,-9.461374969E0,-7.468419342E0,1.575255907E1
6.674009083E0,-8.707243195E0,-9.531878357E0,-3.287912750E0,1.332228056E1
6.684068083E0,-7.969427490E0,-9.933942261E0,9.677375793E-1,1.277229421E1
6.694126083E0,-7.712262268E0,-1.041309586E1,4.395609283E0,1.368330865E1
6.704185083E0,-7.576793976E0,-1.060125458E1,5.674400024E0,1.421243192E1
6.714243083E0,-8.051456909E0,-1.084135529E1,6.166726227E0,1.484551970E1
6.724301083E0,-9.021140442E0,-1.126048370E1,6.634952545E0,1.588087099E1
6.734360083E0,-9.856852570E0,-1.131916168E1,6.638096008E0,1.641174221E1
6.744418083E0,-1.022808060E1,-1.028107040E1,6.269263000E0,1.579929429E1
6.754477083E0,-1.017943176E1,-8.819659424E0,5.223088531E0,1.444603327E1
6.764535083E0,-9.666448517E0,-7.542515259E0,3.660188599E0,1.279557517E1
6.774593083E0,-8.496182098E0,-6.447242889E0,-7.876620483E-1,1.069450619E1
6.784652083E0,-7.452402649E0,-5.872138824E0,-7.277566223E0,1.195756203E1
6.794710083E0,-7.400161285E0,-5.627098389E0,-3.444636841E0,9.914239572E0
6.804769083E0,-7.292235718E0,-4.434678040E0,1.121767273E0,8.608218915E0
6.814827083E0,-5.332361298E0,-4.488565979E0,3.270698547E-1,6.977698492E0
6.824885083E0,-5.969137115E0,-5.576503601E0,2.432591400E0,8.523232441E0
6.834944083E0,-6.943910065E0,-5.679040375E0,2.562371521E0,9.329262263E0
6.845002083E0,-6.639443207E0,-5.719306641E0,1.619332581E0,8.911504506E0
6.855061083E0,-5.641468506E0,-5.285359039E0,1.598226471E0,7.894017667E0
6.865119083E0,-3.797602844E0,-5.140610046E0,2.181114349E0,6.753141404E0
6.875177083E0,-1.564247131E0,-5.270390167E0,-2.263293457E-1,5.502281943E0
6.885236083E0,-3.222798157E-1,-5.120102692E0,-1.791773987E-1,5.133363458E0
6.895294083E0,-3.849993896E-1,-5.193150787E0,1.082548828E0,5.318735902E0
6.905353083E0,-2.522254944E-1,-5.639522552E0,8.898994446E-1,5.714871245E0
6.915411083E0,-6.436614990E-3,-5.949378204E0,3.100053406E-1,5.957452959E0
6.925469083E0,-7.140151978E-1,-5.628295898E0,6.137237549E-1,5.706504120E0
6.935528083E0,-2.055375824E0,-4.958139496E0,1.162183228E0,5.491665220E0
6.945586083E0,-2.893033905E0,-4.275259552E0,2.477797394E0,5.725990686E0
6.955645083E0,-3.385809174E0,-3.618425446E0,3.562292175E0,6.103001885E0
6.965703083E0,-3.337759094E0,-2.883453827E0,4.039050751E0,5.980708379E0
6.975761083E0,-3.572920074E0,-2.225422211E0,4.335733795E0,6.042917294E0
6.985820083E0,-3.341651001E0,-1.432670746E0,4.613406372E0,5.873899491E0
6.995878083E0,-2.795736237E0,-5.170248413E-1,5.021607513E0,5.770615029E0
7.005937083E0,-2.432292023E0,2.170486450E-1,4.968318329E0,5.536004120E0
7.015995083E0,-2.493065643E0,5.117857361E-1,4.495152283E0,5.165626292E0
7.026053083E0,-3.309617615E0,-2.409988403E-2,3.747457123E0,4.999758439E0
7.036112083E0,-4.238286438E0,-1.169218597E0,2.638862457E0,5.127742108E0
7.046170083E0,-5.310357056E0,-3.223696289E0,1.895059204E-1,6.215144593E0
7.056229083E0,-7.158563690E0,-7.595954132E0,-7.129374390E0,1.264007644E1
7.066287083E0,-1.089973389E1,-1.520837402E1,-2.310580124E1,2.973174886E1
7.076345083E0,-2.020243881E1,-2.715173767E1,-4.632985657E1,5.737430611E1
7.086404083E0,-2.384646103E1,-3.005255539E1,-4.037943054E1,5.569836802E1
7.096462083E0,-1.873623779E1,-2.509276932E1,-1.985950195E1,3.708225312E1
7.106521083E0,-1.568019287E1,-1.878533569E1,-9.292376404E0,2.617452091E1
7.116579083E0,-1.287981628E1,-1.251262985E1,-4.144730988E0,1.842917167E1
7.126637083E0,-7.827073517E0,-5.877527618E0,-3.139122162E0,1.027922656E1
7.136696083E0,-3.950135651E0,-2.320175171E-1,-2.551593933E0,4.708294318E0
7.146754083E0,-2.371518402E0,2.406096497E0,1.618135071E-1,3.382245333E0
7.156812083E0,-2.684517517E0,2.693199463E0,3.645519104E0,5.267804778E0
7.166871083E0,-3.942950592E0,1.788181458E0,6.858437805E0,8.110648644E0
7.176929083E0,-5.649701385E0,-1.852547607E0,9.808802490E0,1.147012052E1
7.186988083E0,-7.040459290E0,-6.427633667E0,1.126347748E1,1.475630260E1
7.197046083E0,-8.377029877E0,-1.103774689E1,1.062280975E1,1.745997059E1
7.207104083E0,-1.082923050E1,-1.811966995E1,2.583477631E0,2.126661772E1
7.217163083E0,-1.463910782E1,-2.708138397E1,-1.562361053E1,3.452248603E1
7.227221083E0,-1.424527679E1,-2.274609924E1,-1.757734772E1,3.208233306E1
7.237280083E0,-8.007448425E0,-1.238928635E1,-4.803061981E0,1.551396309E1
7.247338083E0,-4.738695831E0,-5.247787170E0,4.113446045E0,8.180155667E0
7.257396083E0,-2.995570679E0,-2.050885162E0,6.057902527E0,7.062418613E0
7.267455083E0,-1.378483429E0,-2.688409424E-1,6.358178101E0,6.511445368E0
7.277513083E0,-6.566844177E-1,6.664141846E-1,6.380481720E0,6.448712218E0
7.287572083E0,-6.909631348E-1,6.652166748E-1,5.520070953E0,5.602778472E0
7.297630083E0,-1.957928467E0,-1.380130005E-1,4.656965790E0,5.053697838E0
7.307688083E0,-3.745660858E0,-1.445993042E0,4.081412659E0,5.725277324E0
7.317747083E0,-5.649551697E0,-2.971919861E0,3.870501251E0,7.465287802E0
7.327805083E0,-7.559579773E0,-4.845423889E0,3.934418335E0,9.803317125E0
7.337864083E0,-8.938362579E0,-7.002288666E0,3.654949493E0,1.192832880E1
7.347922083E0,-9.957293701E0,-8.954678650E0,3.150348816E0,1.375713143E1
7.357980083E0,-1.078282700E1,-1.033840118E1,2.458337860E0,1.513919820E1
7.368039083E0,-1.111932724E1,-1.114986374E1,1.707050171E0,1.583896840E1
7.378097083E0,-1.084943848E1,-1.094972992E1,1.191821594E0,1.546050902E1
7.388156083E0,-9.713600464E0,-1.014350647E1,4.540058899E-1,1.405172156E1
7.398214083E0,-7.594157867E0,-8.992699585E0,-5.424719238E-1,1.178279064E1
7.408272083E0,-6.068380737E0,-8.144263916E0,-4.996609497E-1,1.016877282E1
7.418331083E0,-5.001100159E0,-7.606132965E0,5.987548828E-3,9.102982881E0
7.428389083E0,-4.307592316E0,-7.021149445E0,4.032614136E-1,8.247091054E0
7.438448083E0,-3.821702728E0,-6.488107910E0,6.194119263E-1,7.555436925E0
7.448506083E0,-3.519630890E0,-6.286028137E0,7.340734863E-1,7.241603084E0
7.458564083E0,-3.361260223E0,-6.399641876E0,8.360115051E-1,7.276840088E0
7.468623083E0,-3.235521698E0,-6.937024384E0,7.213499451E-1,7.688384336E0
7.478681083E0,-2.033072205E0,-9.032965851E0,-2.688858490E0,9.641463303E0
7.488739083E0,-1.262324982E0,-1.143726608E1,-4.514312439E0,1.236056377E1
7.498798083E0,-2.189496918E0,-1.128368546E1,-2.742447052E0,1.181678764E1
7.508856083E0,-2.795436859E0,-1.097098572E1,-1.925595703E0,1.148411571E1
7.518915083E0,-3.288960571E0,-1.060469742E1,-1.278491364E0,1.117637728E1
7.528973083E0,-3.613635406E0,-9.894125061E0,-9.463320923E-1,1.057580333E1
7.539031083E0,-3.702849884E0,-9.090895386E0,-6.623725891E-1,9.838405035E0
7.549090167E0,-3.777245178E0,-8.242609406E0,-3.131488037E-1,9.072279379E0
7.559148167E0,-4.188739471E0,-7.511679382E0,1.721420288E-2,8.600648919E0
7.569207167E0,-4.678071899E0,-6.960675201E0,2.842588806E-1,8.391433672E0
7.579265167E0,-5.116659851E0,-6.764283600E0,5.230123901E-1,8.497604522E0
7.589323167E0,-5.517376556E0,-6.964716797E0,6.553372192E-1,8.909443922E0
7.599382167E0,-5.866899719E0,-7.389383698E0,7.292834473E-1,9.463369278E0
7.609440167E0,-6.337221680E0,-7.900570679E0,6.926097107E-1,1.015180299E1
7.619499167E0,-7.029232635E0,-8.439001007E0,3.745211792E-1,1.098940925E1
7.629557167E0,-7.520960083E0,-8.637787628E0,-4.125421143E-1,1.146064600E1
7.639615167E0,-7.207811279E0,-8.319998474E0,-2.361938324E0,1.125849327E1
7.649674167E0,-5.973029022E0,-8.167016602E0,-6.437213745E0,1.199228738E1
7.659732167E0,-5.305716705E0,-8.517437897E0,-4.771327972E0,1.111138824E1
7.669791167E0,-5.953120422E0,-8.930578766E0,-3.721261597E-1,1.073933693E1
7.679849167E0,-6.262976074E0,-9.242380371E0,9.833052063E-1,1.120773632E1
7.689907167E0,-6.000422058E0,-9.365873566E0,1.145567780E0,1.118199347E1
7.699966167E0,-5.755830688E0,-9.572593689E0,1.345851288E0,1.125057565E1
7.710024167E0,-5.564977570E0,-9.817334747E0,1.545835419E0,1.139028727E1
7.720082167E0,-5.381758575E0,-1.016386414E1,1.500180359E0,1.159818954E1
7.730141167E0,-5.474715271E0,-1.084240311E1,1.277144165E0,1.221316133E1
7.740199167E0,-5.508245544E0,-1.172272247E1,6.265969849E-1,1.296748298E1
7.750258167E0,-4.981191559E0,-1.220322327E1,-7.705975342E-1,1.320320976E1
7.760316167E0,-4.061953125E0,-1.216550171E1,-3.143313446E0,1.320527601E1
7.770374167E0,-4.427492981E0,-1.186851929E1,-4.736151123E0,1.352388892E1
7.780433167E0,-6.367608490E0,-1.156060959E1,-4.268074493E0,1.387121450E1
7.790491167E0,-8.426427155E0,-1.127799728E1,-3.975283356E0,1.462876533E1
7.800550167E0,-1.007569748E1,-1.070678513E1,-4.923262024E0,1.550462629E1
7.810608167E0,-1.181732574E1,-9.850715332E0,-7.941136322E0,1.731321537E1
7.820666167E0,-1.375983627E1,-9.331744537E0,-1.224393860E1,2.064772585E1
7.830725167E0,-1.327065353E1,-9.794731750E0,-1.076651093E1,1.969682139E1
7.840783167E0,-1.154938293E1,-1.032657578E1,-5.795498199E0,1.654128812E1
7.850842167E0,-1.017434235E1,-1.050201096E1,-1.517544250E0,1.470076246E1
7.860900167E0,-9.195527802E0,-1.098879868E1,1.147813110E0,1.437459227E1
7.870958167E0,-9.039252777E0,-1.178484329E1,2.828518066E0,1.511923069E1
7.881017167E0,-9.363628235E0,-1.263043488E1,4.434079285E0,1.633604842E1
7.891075167E0,-9.255852356E0,-1.357332413E1,5.715414734E0,1.739459388E1
7.901134167E0,-9.771380310E0,-1.423824142E1,6.994355164E0,1.863138203E1
7.911192167E0,-1.080977097E1,-1.439152267E1,8.207582245E0,1.978209998E1
7.921250167E0,-1.097008759E1,-1.378887589E1,9.119635620E0,1.984045548E1
7.931309167E0,-1.021311172E1,-1.172885971E1,1.064481400E1,1.884637541E1
7.941367167E0,-8.757239227E0,-8.672665100E0,9.708960114E0,1.568975033E1
7.951425167E0,-5.636229401E0,-6.691085815E0,3.189118195E0,9.311723047E0
7.961484167E0,-4.054917755E0,-5.853727112E0,-5.056185608E0,8.733469643E0
7.971542167E0,-4.471800842E0,-6.571634216E0,-1.390817780E1,1.601938790E1
7.981601167E0,-6.050867157E0,-7.519463196E0,-1.090482330E1,1.456264026E1
7.991659167E0,-5.848188629E0,-7.214696960E0,-2.302362213E0,9.568387233E0
8.001717167E0,-5.391937408E0,-7.156767426E0,6.177653503E-1,8.981867458E0
8.011776167E0,-4.393813019E0,-6.671027527E0,2.290237427E0,8.309836856E0
8.021834167E0,-3.381318512E0,-5.935457153E0,3.688180389E0,7.763094813E0
8.031893167E0,-2.802921295E0,-5.326074371E0,4.287534027E0,7.389613253E0
8.041951167E0,-2.391876068E0,-4.531676331E0,3.957769775E0,6.474650808E0
8.052009167E0,-2.593057709E0,-3.495680695E0,2.908302155E0,5.234687500E0
8.062068167E0,-3.119662628E0,-2.568209381E0,1.296304321E0,4.243630431E0
8.072126167E0,-3.694617004E0,-2.023492126E0,1.000968475E0,4.329740533E0
8.082185167E0,-4.188440094E0,-1.834584961E0,1.334325256E0,4.763313583E0
8.092243167E0,-4.661456451E0,-1.896705780E0,2.021695862E0,5.423460447E0
8.102301167E0,-4.754113770E0,-2.118993530E0,2.957549744E0,5.986554251E0
8.112360167E0,-4.310735779E0,-2.536774750E0,3.506158905E0,6.108258291E0
8.122418167E0,-3.683989105E0,-3.203937378E0,3.243754578E0,5.861649444E0
8.132477167E0,-3.255879364E0,-3.718866577E0,2.657723236E0,5.611970407E0
8.142535167E0,-3.048261108E0,-4.036056976E0,2.293680267E0,5.553613317E0
8.152593167E0,-3.077600098E0,-4.030817871E0,2.111808472E0,5.493528019E0
8.162652167E0,-3.228636017E0,-3.731590118E0,2.480192413E0,5.522699498E0
8.172710167E0,-3.068020020E0,-3.287164307E0,3.229234772E0,5.535896786E0
8.182768167E0,-2.569556580E0,-2.748135223E0,3.501817932E0,5.139805157E0
8.192827167E0,-2.161505127E0,-2.115700378E0,3.203488312E0,4.405749638E0
8.202885167E0,-2.075583801E0,-1.360969849E0,2.838098145E0,3.770290191E0
8.212944167E0,-2.980601807E0,-1.030606842E0,2.307152252E0,3.907568183E0
8.223002167E0,-4.051923981E0,-1.418150940E0,1.119971008E0,4.436617528E0
8.233060167E0,-5.070855103E0,-3.204985199E0,-9.159452820E-1,6.068315858E0
8.243119167E0,-6.034850464E0,-6.484814758E0,-4.201163635E0,9.804183722E0
8.253177167E0,-8.029003601E0,-1.114043335E1,-1.078357544E1,1.746023062E1
8.263236167E0,-1.291484344E1,-1.889490784E1,-2.405018738E1,3.319973247E1
8.273294167E0,-2.082319794E1,-2.724619125E1,-3.674049774E1,5.025758335E1
8.283352167E0,-2.127630569E1,-2.705249405E1,-2.816393280E1,4.447162836E1
8.293411167E0,-1.689731186E1,-2.173989166E1,-1.611279327E1,3.190241597E1
8.303469167E0,-1.331615891E1,-1.503922577E1,-9.587113495E0,2.225783334E1
8.313527167E0,-9.563312988E0,-9.013356628E0,-6.025869141E0,1.445713152E1
8.323586167E0,-6.557862854E0,-4.282145233E0,-3.409909058E0,8.542236990E0
8.333644167E0,-4.273313599E0,-8.220904541E-1,-1.750759277E0,4.690650261E0
8.343703167E0,-3.359314270E0,8.159532166E-1,3.053649902E-1,3.470449509E0
8.353761167E0,-4.658013611E0,2.432441711E-1,2.643652496E0,5.361451021E0
8.363819167E0,-7.019802246E0,-2.852767639E0,4.734354858E0,8.934764838E0
8.373878167E0,-9.152267761E0,-7.943980408E0,7.495662689E0,1.424976453E1
8.383936167E0,-1.083955902E1,-1.351195175E1,9.599088593E0,1.980432735E1
8.393995167E0,-1.191342590E1,-1.864627487E1,7.246131592E0,2.328346423E1
8.404053167E0,-8.864116974E0,-2.281256104E1,-3.342249756E0,2.470133891E1
8.414111167E0,-3.754193115E0,-2.065120560E1,-1.592583206E1,2.634764478E1
8.424170167E0,-4.235891418E0,-1.250798950E1,-7.980504456E0,1.542987456E1
8.434228167E0,-3.126997375E0,-5.092410278E0,1.963017883E0,6.290007491E0
8.444286167E0,-1.993105316E0,-8.695417786E-1,5.222789154E0,5.657393238E0
8.454345167E0,-1.160237274E0,1.065484314E0,4.801265717E0,5.053074296E0
8.464403167E0,5.388793945E-2,2.246079254E0,4.012555847E0,4.598736821E0
8.474462167E0,4.505630493E-1,2.437830505E0,3.662583618E0,4.422730310E0
8.484520167E0,-1.908531189E0,1.091679840E0,3.579057312E0,4.200465143E0
8.494578167E0,-5.413791962E0,-1.262175293E0,3.924538879E0,6.804721544E0
8.504637167E0,-8.371641083E0,-3.625311127E0,4.939278717E0,1.037418572E1
8.514695167E0,-1.042881317E1,-5.928571472E0,5.297932892E0,1.311396953E1
8.524754167E0,-1.129057114E1,-7.910899200E0,4.578379211E0,1.452655771E1
8.534812167E0,-1.071831116E1,-9.129365387E0,2.875071259E0,1.436988313E1
8.544870167E0,-1.039663010E1,-1.012015503E1,1.490001526E0,1.458518288E1
8.554929292E0,-1.025412643E1,-1.097652420E1,1.823208618E-1,1.502213145E1
8.564987292E0,-1.001043320E1,-1.073911789E1,-1.125808868E0,1.472429528E1
8.575046292E0,-8.463250580E0,-9.740993500E0,-1.535955963E0,1.299510390E1
8.585104292E0,-6.499484253E0,-9.486672363E0,-1.924847260E0,1.165955767E1
8.595162292E0,-6.680008850E0,-8.063881073E0,3.977229309E-1,1.047887779E1
8.605221292E0,-6.573729858E0,-6.778054962E0,3.740721130E-1,9.449649902E0
8.615279292E0,-6.059848480E0,-6.274202728E0,4.340972900E-3,8.722809314E0
8.625337292E0,-5.429658966E0,-6.096522217E0,4.599934387E-1,8.176819283E0
8.635396292E0,-4.738845520E0,-6.084397430E0,1.197060699E0,7.804454066E0
8.645454292E0,-4.201013947E0,-6.173312531E0,2.015858002E0,7.734467613E0
8.655513292E0,-3.783232727E0,-6.386020203E0,2.406246185E0,7.802827987E0
8.665571292E0,-3.669020233E0,-6.790479126E0,2.360142059E0,8.071095760E0
8.675629292E0,-3.918401642E0,-7.518265686E0,1.875599670E0,8.683090721E0
8.685688292E0,-4.190685425E0,-8.332123260E0,1.291065216E0,9.415570708E0
8.695746292E0,-4.097429352E0,-8.854686584E0,8.705895996E-1,9.795525920E0
8.705805292E0,-3.611539764E0,-9.053323517E0,4.634362793E-1,9.758107365E0
8.715863292E0,-2.884351959E0,-9.094038849E0,-2.752775574E-1,9.544464707E0
8.725921292E0,-2.486778717E0,-9.218729553E0,-8.455915833E-1,9.585617773E0
8.735980292E0,-3.367397461E0,-9.482331390E0,-3.737727356E-1,1.006944290E1
8.746038292E0,-4.454137573E0,-9.513017578E0,2.881507874E-1,1.050808621E1
8.756096292E0,-4.985233154E0,-9.242230682E0,5.474116516E-1,1.051527637E1
8.766155292E0,-5.211113434E0,-8.933273163E0,6.457571411E-1,1.036224275E1
8.776213292E0,-5.240003357E0,-8.628955994E0,6.411167908E-1,1.011570796E1
8.786272292E0,-5.151687012E0,-8.347690887E0,5.839356995E-1,9.826739191E0
8.796330292E0,-5.251978455E0,-8.173602905E0,4.990621948E-1,9.728315641E0
8.806388292E0,-5.537584534E0,-8.005801849E0,5.391787720E-1,9.749277895E0
8.816447292E0,-5.572761383E0,-7.623646545E0,6.444099426E-1,9.465248029E0
8.826505292E0,-5.381758575E0,-7.102131042E0,5.643264771E-1,8.928720798E0
8.836564292E0,-5.449567566E0,-6.849456482E0,2.424957275E-1,8.756234632E0
8.846622292E0,-6.035299530E0,-6.961872711E0,-6.548881531E-1,9.236957863E0
8.856680292E0,-7.196285248E0,-7.678282928E0,-2.915487213E0,1.091982673E1
8.866739292E0,-8.378676453E0,-8.990603943E0,-5.379812622E0,1.341549709E1
8.876797292E0,-8.263865204E0,-1.005578888E1,-3.959715729E0,1.360476779E1
8.886855292E0,-7.257507935E0,-1.032178574E1,-1.469045105E0,1.270310103E1
8.896914292E0,-6.346652069E0,-1.037537430E1,-2.067201233E-1,1.216433794E1
8.906972292E0,-5.577551422E0,-1.042821442E1,2.423460388E-1,1.182858687E1
8.917031292E0,-5.015919342E0,-1.051847672E1,2.546205139E-1,1.165601265E1
8.927089292E0,-4.653073883E0,-1.086859863E1,7.319778442E-2,1.182298146E1
8.937147292E0,-4.384382629E0,-1.149070496E1,-2.025288391E-1,1.230041176E1
8.947206292E0,-4.246070251E0,-1.211939758E1,-8.324189758E-1,1.286863752E1
8.957264292E0,-4.178410950E0,-1.288415726E1,-2.275268555E0,1.373453579E1
8.967322292E0,-4.695884857E0,-1.364727036E1,-4.310137024E0,1.506242357E1
8.977381292E0,-6.419101410E0,-1.364742004E1,-5.284311218E0,1.598064085E1
8.987439292E0,-8.026458893E0,-1.279913406E1,-5.175637207E0,1.596963042E1
8.997498292E0,-9.217532043E0,-1.212807953E1,-5.536536713E0,1.620822164E1
9.007556292E0,-1.120420074E1,-1.244586868E1,-8.073760529E0,1.859084104E1
9.017614292E0,-1.348860031E1,-1.280587006E1,-1.086455704E1,2.153999178E1
9.027673292E0,-1.393182861E1,-1.233435059E1,-9.734407196E0,2.099977944E1
9.037731292E0,-1.248224304E1,-1.149444717E1,-4.960833893E0,1.767876071E1
9.047790292E0,-1.062550415E1,-1.111094467E1,1.043180695E0,1.540917441E1
9.057848292E0,-9.251511383E0,-1.125404709E1,5.193899231E0,1.546675881E1
9.067906292E0,-9.225016479E0,-1.125958557E1,6.270011444E0,1.584904539E1
9.077965292E0,-1.002046234E1,-1.163530426E1,6.552773438E0,1.669517327E1
9.088023292E0,-1.155626862E1,-1.212164291E1,8.347690887E0,1.871270997E1
9.098081292E0,-1.214963470E1,-1.181537979E1,1.319431229E1,2.147805158E1
9.108140292E0,-1.099403778E1,-1.024379791E1,1.377540390E1,2.038543635E1
9.118198292E0,-1.014605118E1,-8.080646210E0,7.256460114E0,1.486255062E1
9.128257292E0,-1.126227997E1,-7.216642914E0,1.983674927E0,1.352234637E1
9.138315292E0,-1.130658783E1,-6.042035522E0,1.237027588E0,1.287926080E1
9.148373292E0,-1.084045715E1,-4.409979401E0,-4.367916870E0,1.249168233E1
9.158432292E0,-8.864566040E0,-3.425626373E0,-1.638462799E1,1.894126399E1
9.168490292E0,-8.119864655E0,-3.898942108E0,-5.092559967E0,1.034737255E1
9.178548292E0,-7.924520874E0,-4.777315521E0,7.301815796E-1,9.281914663E0
9.188607292E0,-6.908583527E0,-4.526437225E0,1.682501221E0,8.428995827E0
9.198665292E0,-5.343737640E0,-4.403842163E0,2.317929840E0,7.302202169E0
9.208724292E0,-3.998335419E0,-3.906127167E0,3.314707031E0,6.498599716E0
9.218782292E0,-2.535577240E0,-4.784500580E0,4.561314697E0,7.079985135E0
9.228840292E0,-9.086105347E-2,-6.401138763E0,3.648662567E0,7.368552892E0
9.238899292E0,2.549498291E0,-7.824379120E0,-8.411009216E-1,8.272140044E0
9.248957292E0,2.763403473E0,-7.505991211E0,-1.395997009E0,8.119427964E0
9.259016292E0,2.474354553E-1,-6.092630310E0,6.623725891E-1,6.133523119E0
9.269074292E0,-1.519340515E0,-5.175786896E0,1.881886597E0,5.713025709E0
9.279132292E0,-2.791844330E0,-4.338877258E0,2.956651611E0,5.946598975E0
9.289191292E0,-3.416195984E0,-3.585793304E0,3.542084198E0,6.088897198E0
9.299249292E0,-3.408262482E0,-2.680924988E0,3.519331512E0,5.584738689E0
9.309307292E0,-3.287313995E0,-1.757495270E0,3.101550293E0,4.849209951E0
9.319366292E0,-3.514541473E0,-1.175954590E0,2.856809235E0,4.679340762E0
9.329424292E0,-3.952231293E0,-8.927435303E-1,3.169658661E0,5.144303571E0
9.339483292E0,-4.078119507E0,-8.514294434E-1,3.871100006E0,5.686950507E0
9.349541292E0,-3.671714630E0,-8.274792480E-1,4.447401581E0,5.826284498E0
9.359599292E0,-3.017425232E0,-5.848338318E-1,4.877906342E0,5.765488350E0
9.369658292E0,-2.575693817E0,-4.087998962E-1,4.862937469E0,5.518104460E0
9.379716292E0,-2.396516418E0,-6.020480347E-1,4.256997528E0,4.922172359E0
9.389774292E0,-2.594554596E0,-1.278641052E0,3.041974182E0,4.197647367E0
9.399833292E0,-3.310216370E0,-2.416425018E0,7.685018921E-1,4.169800648E0
9.409891292E0,-4.494254150E0,-4.427193604E0,-2.004781036E0,6.619479630E0
9.419950292E0,-6.139931946E0,-7.812104645E0,-6.886429596E0,1.208927855E1
9.430008292E0,-9.298064575E0,-1.359218491E1,-1.886003036E1,2.503801591E1
9.440066292E0,-1.675974792E1,-2.481973709E1,-4.073718658E1,5.056112015E1
9.450125292E0,-2.268787033E1,-3.189447510E1,-4.110093018E1,5.675635174E1
9.460183292E0,-1.919533310E1,-2.925456482E1,-2.206381805E1,4.136547404E1
9.470241292E0,-1.466665054E1,-2.255015671E1,-1.060604462E1,2.891553887E1
9.480300292E0,-1.084464844E1,-1.481229767E1,-6.802154846E0,1.957753489E1
9.490358292E0,-6.658902740E0,-8.217461700E0,-5.566474457E0,1.195212535E1
9.500417292E0,-3.312461700E0,-2.489024048E0,-4.657564545E0,6.233823122E0
9.510475292E0,-1.456171875E0,8.708889771E-1,-3.318000183E0,3.726661959E0
9.520533292E0,-1.333277435E0,1.799108734E0,-4.927752686E-1,2.292869037E0
9.530592292E0,-1.720372467E0,1.661844177E0,2.785707092E0,3.671725956E0
9.540650292E0,-2.366279297E0,-4.552033997E-1,5.175038452E0,5.708547173E0
9.550707833E0,-3.094814301E0,-4.569547577E0,7.806865540E0,9.560637540E0
9.560766833E0,-3.783232727E0,-8.946146393E0,1.028825546E1,1.414901359E1
9.570824833E0,-5.332660675E0,-1.296094757E1,1.105960144E1,1.785324105E1
9.580883833E0,-9.220376129E0,-1.699475922E1,9.499246216E0,2.154235028E1
9.590941833E0,-1.371792343E1,-2.252036865E1,-5.218148804E-1,2.637462262E1
9.600999833E0,-1.513323029E1,-2.551863373E1,-1.759501099E1,3.449347384E1
9.611058833E0,-1.067714676E1,-1.736449036E1,-1.840931763E1,2.746688850E1
9.621116833E0,-6.675667877E0,-8.003406830E0,-4.449197845E0,1.133200882E1
9.631174833E0,-5.070705414E0,-3.287912750E0,2.789449310E0,6.656083766E0
9.641233833E0,-4.052373047E0,-3.941304016E-1,4.030817871E0,5.729272100E0
9.651291833E0,-3.305426331E0,1.707349548E0,5.350473633E0,6.516782473E0
9.661350833E0,-3.194656677E0,3.004402313E0,6.090235291E0,7.504880441E0
9.671408833E0,-3.963457947E0,3.082090759E0,5.402116241E0,7.375035066E0
9.681466833E0,-5.203329620E0,1.595981140E0,4.170178070E0,6.856542866E0
9.691525833E0,-6.090834045E0,-2.068698120E-1,3.757037201E0,7.159356327E0
9.701583833E0,-6.950795746E0,-1.865271149E0,3.951782227E0,8.210321597E0
9.711641833E0,-8.424780579E0,-4.162244568E0,4.058210907E0,1.023573561E1
9.721700833E0,-9.862391052E0,-6.279292145E0,3.595074005E0,1.223195913E1
9.731758833E0,-1.099972595E1,-8.101153564E0,2.820434875E0,1.394910438E1
9.741817833E0,-1.171957901E1,-9.272018738E0,2.054926758E0,1.508448168E1
9.751875833E0,-1.211475723E1,-9.469757538E0,1.287322998E0,1.543051688E1
9.761933833E0,-1.170865173E1,-9.503437500E0,7.668553162E-1,1.509953366E1
9.771992833E0,-9.891430664E0,-9.596543884E0,-1.971400452E-1,1.378306640E1
9.782050833E0,-6.731651459E0,-9.000483398E0,-1.103804626E0,1.129345905E1
9.792109833E0,-4.774471436E0,-8.391849060E0,-2.631527710E-1,9.658569124E0
9.802167833E0,-4.140839081E0,-7.757168884E0,1.018931122E0,8.852030164E0
9.812225833E0,-4.148922272E0,-7.256460114E0,1.694775696E0,8.528894070E0
9.822284833E0,-4.258494415E0,-7.040908356E0,1.866169281E0,8.437520545E0
9.832342833E0,-4.201013947E0,-7.165000305E0,1.368603973E0,8.417768373E0
9.842400833E0,-4.174519043E0,-7.612569580E0,1.034349060E0,8.743437701E0
9.852459833E0,-4.079317017E0,-8.076454926E0,9.883946228E-1,9.102025896E0
9.862517833E0,-3.726051636E0,-8.688681793E0,8.192463684E-1,9.489352808E0
9.872576833E0,-3.567082214E0,-9.974956970E0,4.484674072E-1,1.060306395E1
9.882634833E0,-2.408790894E0,-1.186762115E1,-1.029409332E0,1.215328717E1
9.892692833E0,-5.468128967E-1,-1.242835510E1,-2.753524017E0,1.274146418E1
9.902751833E0,-7.858657837E-1,-1.176493469E1,-2.417921906E0,1.203651194E1
9.912809833E0,-2.185904388E0,-1.111289062E1,-1.882335663E0,1.148118912E1
9.922867833E0,-3.332220612E0,-1.022179367E1,-1.560804291E0,1.086392517E1
9.932926833E0,-3.573219452E0,-9.130413208E0,-1.437161407E0,9.909479074E0
9.942984833E0,-3.875440979E0,-8.224796448E0,-1.075663147E0,9.155510395E0
9.953042833E0,-4.452640686E0,-7.485633545E0,-3.481759644E-1,8.716762309E0
9.963101833E0,-4.836143188E0,-6.964118042E0,2.615061951E-1,8.482665061E0
9.973159833E0,-5.185816040E0,-6.682254181E0,6.271957397E-1,8.481661596E0
9.983218833E0,-5.619314575E0,-6.589447174E0,8.460406494E-1,8.701338698E0
9.993276833E0,-6.176605682E0,-6.579717407E0,9.744735718E-1,9.077044544E0
1.000333483E1,-6.830296326E0,-6.790179749E0,1.051413574E0,9.688393026E0
1.001339383E1,-7.428602142E0,-7.401358795E0,9.988728333E-1,1.053384966E1
1.002345183E1,-7.788004761E0,-8.348289642E0,5.400769043E-1,1.142972621E1
1.003350983E1,-7.443421326E0,-9.367969208E0,-1.460512848E0,1.205389837E1
1.004356883E1,-6.056255951E0,-1.067594925E1,-6.677314453E0,1.397285428E1
1.005362683E1,-5.156926117E0,-1.129281647E1,-5.681136017E0,1.365272490E1
1.006368583E1,-5.665119324E0,-1.062475571E1,-1.220112762E0,1.210238348E1
1.007374383E1,-5.745651855E0,-1.015563126E1,-6.436614990E-2,1.166848338E1
1.008380183E1,-5.465584259E0,-1.003647903E1,2.398013306E-1,1.143070546E1
1.009386083E1,-5.393733673E0,-1.015069153E1,6.424639893E-1,1.151267395E1
1.010391883E1,-5.440436554E0,-1.037238052E1,9.240284729E-1,1.174897682E1
1.011397683E1,-5.560636597E0,-1.079360458E1,9.883946228E-1,1.218193348E1
1.012403583E1,-5.799390106E0,-1.096664474E1,7.885601807E-1,1.243068983E1
1.013409383E1,-5.991291046E0,-1.082743423E1,-7.649093628E-2,1.237476268E1
1.014415283E1,-5.918242950E0,-1.092113937E1,-1.965263214E0,1.257613392E1
1.015421083E1,-6.208788757E0,-1.155417297E1,-4.441414032E0,1.384825366E1
1.016426883E1,-7.366631012E0,-1.189112228E1,-4.433031464E0,1.467371151E1
1.017432783E1,-8.441695404E0,-1.150657196E1,-3.172053680E0,1.461934828E1
1.018438583E1,-9.116192780E0,-1.084674408E1,-3.084186401E0,1.450065632E1
1.019444383E1,-9.656569061E0,-1.045351181E1,-4.111500092E0,1.481315862E1
1.020450283E1,-1.112860794E1,-1.042821442E1,-6.958729248E0,1.676357609E1
1.021456083E1,-1.292846512E1,-1.013377670E1,-1.060095520E1,1.955041922E1
1.022461983E1,-1.169128784E1,-9.538314972E0,-9.108708344E0,1.762481863E1
1.023467783E1,-9.582024078E0,-9.269923096E0,-4.488266602E0,1.406738059E1
1.024473583E1,-8.322992249E0,-9.598789215E0,4.890330505E-1,1.271409091E1
1.025479483E1,-7.679181061E0,-1.049392776E1,3.901636505E0,1.357627007E1
1.026485283E1,-7.765102386E0,-1.125359802E1,5.607189789E0,1.477771501E1
1.027491083E1,-8.080197144E0,-1.192644882E1,6.322701874E0,1.573233379E1
1.028496983E1,-8.968000946E0,-1.272174500E1,6.893165588E0,1.702303053E1
1.029502783E1,-1.011207184E1,-1.308309357E1,7.945028229E0,1.834515761E1
1.030508583E1,-1.033660492E1,-1.277847702E1,8.616082764E0,1.855725622E1
1.031514483E1,-9.972262573E0,-1.116917358E1,7.810308380E0,1.688778779E1
1.032520283E1,-9.487121429E0,-8.996591492E0,5.708529053E0,1.426644439E1
1.033526183E1,-8.610993347E0,-7.318580933E0,2.970722351E0,1.168486305E1
1.034531983E1,-7.579488373E0,-5.862708435E0,-1.154399414E0,9.651561127E0
1.035537783E1,-6.635850677E0,-4.972210236E0,-1.042087967E1,1.331736167E1
1.036543683E1,-6.548133087E0,-4.979395294E0,-7.645950165E0,1.123089392E1
1.037549483E1,-6.470893707E0,-5.259462891E0,-1.700164490E0,8.510286397E0
1.038555283E1,-6.308032379E0,-5.895041199E0,8.134085083E-1,8.672048007E0
1.039561183E1,-5.114564209E0,-6.121370544E0,1.586999817E0,8.133173600E0
1.040566983E1,-4.076772308E0,-6.263574829E0,2.291734314E0,7.816935989E0
1.041572883E1,-3.060984650E0,-6.220015411E0,2.790347443E0,7.472901551E0
1.042578683E1,-1.636546783E0,-6.397246857E0,1.847458191E0,6.856832686E0
1.043584483E1,-7.608677673E-1,-6.467600555E0,5.995033264E-1,6.539738599E0
1.044590383E1,-1.439107361E0,-5.531147919E0,9.639953613E-1,5.796025738E0
1.045596183E1,-2.440075836E0,-4.698429565E0,1.337618408E0,5.460625740E0
1.046601983E1,-3.276835785E0,-4.180057526E0,1.941462708E0,5.655069507E0
1.047607883E1,-3.773203583E0,-3.776646423E0,2.720592499E0,5.991806658E0
1.048613683E1,-3.731739807E0,-3.408561859E0,2.990331573E0,5.872500222E0
1.049619583E1,-3.382815399E0,-3.127446442E0,2.736309814E0,5.358334879E0
1.050625383E1,-3.092568970E0,-2.950065308E0,2.390379181E0,4.897017539E0
1.051631183E1,-3.005599823E0,-2.801723785E0,2.212399292E0,4.666690165E0
1.052637083E1,-3.241060181E0,-2.693349152E0,2.290387115E0,4.796297935E0
1.053642883E1,-3.564238129E0,-2.457439728E0,2.528691559E0,5.013689705E0
1.054648683E1,-3.552113342E0,-2.088457031E0,3.047662354E0,5.125173928E0
1.055654583E1,-3.086581421E0,-1.564546509E0,3.581003265E0,4.979796686E0
1.056660383E1,-2.511477356E0,-1.067579956E0,3.890260162E0,4.751985859E0
1.057666183E1,-2.423011322E0,-8.708889771E-1,3.747307434E0,4.546619017E0
1.058672083E1,-2.575544128E0,-6.191125488E-1,3.205583954E0,4.158424749E0
1.059677883E1,-3.316353607E0,-5.447172546E-1,2.310894470E0,4.078621261E0
1.060683783E1,-4.115841064E0,-9.364526367E-1,4.725672913E-1,4.247400505E0
1.061689583E1,-4.509821777E0,-2.725981293E0,-2.830314331E0,5.981650749E0
1.062695383E1,-5.628595276E0,-7.039710846E0,-8.127498779E0,1.213650897E1
1.063701283E1,-8.344248047E0,-1.383707565E1,-1.774634628E1,2.400049884E1
1.064707083E1,-1.710792389E1,-2.427397202E1,-3.610836227E1,4.675169091E1
1.065712883E1,-2.516312302E1,-2.936338852E1,-3.690889755E1,5.345706748E1
1.066718783E1,-2.164678528E1,-2.669398956E1,-1.987477020E1,3.970086753E1
1.067724583E1,-1.660631699E1,-2.163989960E1,-1.000534378E1,2.905446476E1
1.068730483E1,-1.187076462E1,-1.453881638E1,-6.419101410E0,1.983676126E1
1.069736283E1,-7.699089661E0,-8.230783997E0,-4.831652527E0,1.226240812E1
1.070742083E1,-4.587061157E0,-3.491339722E0,-4.210294647E0,7.138428688E0
1.071747983E1,-2.529290314E0,-4.782554626E-1,-3.484454041E0,4.332142396E0
1.072753783E1,-1.668729858E0,8.710386658E-1,-1.299148407E0,2.287171677E0
1.073759583E1,-1.951042786E0,6.491999817E-1,1.671424255E0,2.649846714E0
1.074765483E1,-2.553988953E0,-1.538650360E0,4.697830811E0,5.564163803E0
1.075771283E1,-3.298690338E0,-5.983058167E0,7.997568970E0,1.051852900E1
1.076777083E1,-5.386548615E0,-1.125015518E1,9.911039886E0,1.593140324E1
1.077782983E1,-7.895630951E0,-1.592328735E1,9.243128815E0,2.003315997E1
1.078788783E1,-1.007270370E1,-2.111688721E1,4.110751648E0,2.375459038E1
1.079794583E1,-1.165700912E1,-2.668440948E1,-1.167631897E1,3.137323694E1
1.080800483E1,-9.217831421E0,-2.370964554E1,-1.953362961E1,3.207301659E1
1.081806283E1,-6.172863464E0,-1.253014343E1,-4.068689117E0,1.454864148E1
1.082812183E1,-5.664670258E0,-5.094356232E0,4.416715393E0,8.806152929E0
1.083817983E1,-4.561763763E0,-1.546733551E0,4.395309906E0,6.520799221E0
1.084823783E1,-2.982697449E0,7.770341492E-1,4.337230682E0,5.320886781E0
1.085829683E1,-2.214345245E0,2.396217041E0,5.161117401E0,6.105924484E0
1.086835483E1,-1.885928192E0,3.054398346E0,6.009702759E0,7.000185830E0
1.087841283E1,-2.974314880E0,2.860701141E0,5.475014648E0,6.856088202E0
1.088847183E1,-5.345084839E0,1.272653503E0,4.187691650E0,6.908425308E0
1.089852983E1,-7.763156433E0,-5.697152710E-1,4.176315308E0,8.833616634E0
1.090858883E1,-1.005084915E1,-2.574945374E0,4.439019012E0,1.128515849E1
1.091864683E1,-1.202030365E1,-5.107828217E0,4.226610718E0,1.372741225E1
1.092870483E1,-1.337124435E1,-7.349566498E0,3.455863495E0,1.564446534E1
1.093876383E1,-1.350805984E1,-8.907975769E0,2.299218750E0,1.634338153E1
1.094882183E1,-1.260783188E1,-9.647288361E0,9.895921326E-1,1.590619030E1
1.095887983E1,-1.170416107E1,-9.330996094E0,-5.373825073E-2,1.496855913E1
1.096893883E1,-1.011147308E1,-8.657696228E0,-1.232087860E0,1.336845662E1
1.097899683E1,-8.300988007E0,-8.044122162E0,-1.796414337E0,1.169792322E1
1.098905483E1,-7.177274780E0,-7.406448212E0,-7.955955505E-1,1.034416360E1
1.099911383E1,-5.975573730E0,-6.610104218E0,4.390370178E-1,8.921530848E0
1.100917183E1,-4.620292053E0,-6.191424866E0,9.445358276E-1,7.782865054E0
1.101923083E1,-3.974983978E0,-6.153852997E0,1.027014313E0,7.397645756E0
1.102928883E1,-3.780837708E0,-6.296955414E0,1.200802917E0,7.442332222E0
1.103934683E1,-3.879931641E0,-6.649023285E0,1.397194519E0,7.824035577E0
1.104940583E1,-3.938010864E0,-7.299271088E0,1.317859497E0,8.397859348E0
1.105946383E1,-4.012555847E0,-8.081095276E0,1.160536652E0,9.096787928E0
1.106952183E1,-3.994593201E0,-8.961115265E0,1.003962250E0,9.862367963E0
1.107958083E1,-3.970343628E0,-9.947563934E0,9.578581238E-1,1.075337849E1
1.108963883E1,-3.911665649E0,-1.078821579E1,9.532177734E-1,1.151500552E1
1.109969683E1,-3.493285675E0,-1.108265350E1,9.313632202E-1,1.165743072E1
1.110975583E1,-2.761158142E0,-1.120195541E1,7.081773376E-1,1.155894954E1
1.111981383E1,-1.265618134E0,-1.151315826E1,-7.458988953E-1,1.160650540E1
1.112987283E1,-8.663983154E-1,-1.108325226E1,-1.457369385E0,1.121218320E1
1.113993083E1,-2.420466614E0,-1.036624329E1,-5.536985779E-1,1.065946718E1
1.114998883E1,-3.712579651E0,-1.021580612E1,7.185058594E-2,1.086973343E1
1.116004783E1,-4.318519592E0,-1.023496628E1,7.948471069E-2,1.110902624E1
1.117010583E1,-4.528083801E0,-1.029304550E1,-1.707948303E-1,1.124631048E1
1.118016383E1,-4.845573578E0,-1.000264938E1,-4.210743713E-1,1.112249440E1
1.119022283E1,-5.579796753E0,-9.587562561E0,-5.318440247E-1,1.110577983E1
1.120028083E1,-6.224057007E0,-8.873996429E0,-1.056053925E0,1.089045216E1
1.121033883E1,-6.622678070E0,-7.856262817E0,-4.273612976E0,1.112854430E1
1.122039783E1,-6.643335114E0,-7.216942291E0,-8.181835785E0,1.277343314E1
1.123045583E1,-6.379733276E0,-7.295528870E0,-5.851182404E0,1.132086895E1
1.124051483E1,-6.581214294E0,-8.044720917E0,-2.599194946E0,1.071381027E1
1.125057283E1,-6.849007416E0,-8.878786469E0,-7.381150818E-1,1.123772956E1
1.126063083E1,-6.490951996E0,-9.345964966E0,1.770817566E-1,1.138028457E1
1.127068983E1,-5.549260254E0,-9.431437225E0,5.038522339E-1,1.095445866E1
1.128074783E1,-4.708608398E0,-9.589508514E0,7.147636414E-1,1.070703291E1
1.129080583E1,-4.296365662E0,-9.938732300E0,9.624984741E-1,1.087030639E1
1.130086483E1,-4.064048767E0,-1.046324158E1,1.025218048E0,1.127151226E1
1.131092283E1,-3.723207550E0,-1.113369736E1,9.412426758E-1,1.177741182E1
1.132098083E1,-3.280128937E0,-1.158081757E1,6.270460510E-1,1.205270792E1
1.133103983E1,-3.705993347E0,-1.134625534E1,-2.429447937E-1,1.193863138E1
1.134109783E1,-5.317392426E0,-1.034618500E1,-1.777403870E0,1.176764083E1
1.135115683E1,-7.028633881E0,-9.274413757E0,-2.478695526E0,1.189791479E1
1.136121483E1,-8.444838867E0,-9.075028381E0,-2.327509918E0,1.261303873E1
1.137127283E1,-1.028481262E1,-9.417815552E0,-2.578388214E0,1.418170322E1
1.138133183E1,-1.241937378E1,-9.784253540E0,-3.923640747E0,1.629010188E1
1.139138983E1,-1.458536957E1,-9.986033936E0,-6.764582977E0,1.892652800E1
1.140144783E1,-1.612641495E1,-1.006162674E1,-1.042477158E1,2.167887114E1
1.141150683E1,-1.613659378E1,-9.873168640E0,-1.205293579E1,2.243083545E1
1.142156483E1,-1.475017685E1,-9.378746796E0,-1.032013916E1,2.029861771E1
1.143162283E1,-1.304417450E1,-9.461524658E0,-5.500312042E0,1.702716564E1
1.144168183E1,-1.131197662E1,-1.086979614E1,5.424719238E-1,1.569737427E1
1.145173983E1,-9.735305328E0,-1.270093826E1,4.956492920E0,1.675281542E1
1.146179783E1,-8.740174713E0,-1.349024689E1,6.973249054E0,1.752151870E1
1.147185683E1,-8.374036102E0,-1.323053696E1,7.210355988E0,1.723835324E1
1.148191483E1,-8.940458221E0,-1.280512161E1,7.218738556E0,1.720503179E1
1.149197383E1,-9.986483002E0,-1.228016327E1,7.356452179E0,1.745421557E1
1.150203183E1,-1.029723679E1,-1.149429749E1,7.725883942E0,1.725807761E1
1.151208983E1,-1.031969009E1,-1.003992188E1,8.252039795E0,1.659494488E1
1.152214883E1,-1.017868332E1,-7.517966309E0,7.158414001E0,1.453851102E1
1.153220683E1,-9.412127380E0,-4.658163300E0,3.970942383E0,1.122742226E1
1.154226483E1,-8.898844757E0,-2.696043549E0,9.131011963E-2,9.298732514E0
1.155232429E1,-8.312963104E0,-2.032024384E0,-8.402626648E0,1.199327367E1
1.156238229E1,-7.586523743E0,-3.061284027E0,-1.156974060E1,1.416988708E1
1.157244029E1,-6.818470917E0,-4.161196747E0,-2.950963440E0,8.515590950E0
1.158249929E1,-6.405180359E0,-4.809797974E0,9.351054382E-1,8.064422742E0
1.159255729E1,-5.277425537E0,-5.125641174E0,2.189796295E0,7.675846895E0
1.160261529E1,-4.004023590E0,-4.975802765E0,2.519111481E0,6.865620199E0
1.161267429E1,-2.959795074E0,-4.503085785E0,2.881058807E0,6.110537482E0
1.162273229E1,-2.196981354E0,-4.296814728E0,2.749931488E0,5.554409695E0
1.163279129E1,-6.920109558E-1,-4.609065399E0,7.912545776E-1,4.727414391E0
1.164284929E1,-1.297801208E-1,-4.195924530E0,-1.844165039E-1,4.201979889E0
1.165290729E1,-1.163829803E0,-3.334615631E0,3.219804382E-1,3.546524020E0
1.166296629E1,-2.047891388E0,-3.064726868E0,9.750723267E-1,3.812764870E0
1.167302429E1,-2.552192688E0,-3.076402588E0,1.752106476E0,4.364380540E0
1.168308229E1,-2.904859314E0,-3.393293610E0,2.475402374E0,5.106884184E0
1.169314129E1,-3.080593872E0,-3.877386932E0,2.867437134E0,5.722445609E0
1.170319929E1,-3.070864105E0,-4.440815277E0,2.649640045E0,6.014286246E0
1.171325729E1,-3.052452393E0,-4.803960114E0,2.290387115E0,6.135256435E0
1.172331629E1,-3.181184692E0,-4.885989532E0,2.159858551E0,6.217541212E0
1.173337429E1,-3.537443848E0,-4.679419098E0,2.311792603E0,6.305145288E0
1.174343229E1,-3.795207825E0,-4.185146942E0,2.716101837E0,6.268673428E0
1.175349129E1,-3.621419220E0,-3.566184082E0,3.008294220E0,5.906113797E0
1.176354929E1,-3.055895233E0,-2.774480438E0,2.923720093E0,5.058100094E0
1.177360829E1,-2.672243042E0,-2.040406952E0,2.600093079E0,4.250250278E0
1.178366629E1,-2.664908295E0,-1.526226196E0,2.224673767E0,3.792133435E0
1.179372429E1,-2.943928070E0,-1.357527008E0,1.514101410E0,3.578001557E0
1.180378329E1,-3.949387207E0,-1.921105042E0,9.669891357E-2,4.392909579E0
1.181384129E1,-5.666765900E0,-3.575464783E0,-2.928210754E0,7.312359564E0
1.182389929E1,-8.034392395E0,-6.859186249E0,-1.165341660E1,1.572901826E1
1.183395829E1,-1.158905045E1,-1.378887589E1,-3.100727005E1,3.585930820E1
1.184401629E1,-2.066767136E1,-2.361549133E1,-4.344460648E1,5.359363677E1
1.185407429E1,-2.670147400E1,-2.499651947E1,-2.644191376E1,4.513279852E1
1.186413329E1,-2.196068253E1,-2.130280060E1,-1.267564087E1,3.311725776E1
1.187419129E1,-1.620530090E1,-1.692515396E1,-6.953939209E0,2.444237886E1
1.188424929E1,-1.174008636E1,-1.117231705E1,-5.557343445E0,1.713284455E1
1.189430829E1,-8.230334930E0,-5.322332153E0,-4.835095367E0,1.092903380E1
1.190436629E1,-5.435496826E0,-4.948709106E-1,-3.608396301E0,6.542938700E0
1.191442529E1,-3.653302917E0,1.932032318E0,-1.652713165E0,4.450936069E0
1.192448329E1,-2.474803619E0,2.983146515E0,-1.210981750E-1,3.877948021E0
1.193454129E1,-2.238295441E0,3.197351074E0,6.113287354E-1,3.950537077E0
1.194460029E1,-3.174149323E0,1.455872498E0,1.322649536E0,3.734192074E0
1.195465829E1,-5.347928925E0,-2.610720978E0,5.002597046E0,7.774457216E0
1.196471629E1,-7.231013031E0,-7.331753540E0,9.223818970E0,1.382465174E1
1.197477529E1,-8.138426056E0,-1.187615341E1,9.738748169E0,1.738160563E1
1.198483329E1,-7.768096161E0,-1.719938370E1,4.467908936E0,1.939392502E1
1.199489129E1,-1.058553726E1,-2.288486069E1,-5.544320526E0,2.581685376E1
1.200495029E1,-1.556104065E1,-2.325519058E1,-1.351015549E1,3.107208034E1
1.201500829E1,-1.309701462E1,-1.794378571E1,-1.226459564E1,2.537580627E1
1.202506629E1,-7.032825165E0,-9.641151123E0,-1.688339081E0,1.205250653E1
1.203512529E1,-3.933520203E0,-4.474046173E0,4.922363892E0,7.727828713E0
1.204518329E1,-2.489772491E0,-1.897603912E0,6.471791840E0,7.189155533E0
1.205524129E1,-1.872755585E0,-3.520678711E-1,6.073021088E0,6.364962718E0
1.206530029E1,-1.785786438E0,4.674778748E-1,5.490881653E0,5.792870626E0
1.207535829E1,-1.855242004E0,4.647834778E-1,4.515809326E0,4.904128918E0
1.208541729E1,-2.807861023E0,-4.288581848E-1,3.804189148E0,4.747616027E0
1.209547529E1,-4.479884033E0,-1.840572510E0,3.487896881E0,5.968458157E0
1.210553329E1,-6.035748596E0,-3.422183533E0,3.341351624E0,7.701053949E0
1.211559229E1,-7.440726929E0,-5.620212708E0,3.149300995E0,9.842220525E0
1.212565029E1,-8.458161163E0,-7.829468536E0,2.533331909E0,1.180079821E1
1.213570829E1,-9.457333374E0,-9.701625366E0,1.873803406E0,1.367749350E1
1.214576729E1,-1.031190628E1,-1.096365097E1,1.127754822E0,1.509333908E1
1.215582529E1,-1.052521271E1,-1.181822388E1,3.564088440E-1,1.582964135E1
1.216588329E1,-9.692194977E0,-1.177376633E1,-3.177891541E-1,1.525323595E1
1.217594229E1,-8.048463135E0,-1.081366287E1,-6.285429382E-1,1.349474452E1
1.218600029E1,-6.281687164E0,-9.562115479E0,-5.412744141E-1,1.145367295E1
1.219605829E1,-5.033283234E0,-8.580756226E0,-3.513194275E-1,9.954232409E0
1.220611729E1,-4.309238892E0,-7.928263092E0,-1.005908203E-1,9.024245896E0
1.221617529E1,-3.870201874E0,-7.522007904E0,1.109193420E-1,8.459986321E0
1.222623329E1,-3.652255096E0,-7.315287781E0,2.406994629E-1,8.179874011E0
1.223629229E1,-3.460653534E0,-7.187453613E0,2.859054565E-1,7.982315094E0
1.224635029E1,-3.127596130E0,-7.253765717E0,1.056802368E-1,7.900009047E0
1.225640929E1,-2.537972260E0,-7.523953857E0,-2.034718781E0,8.197027837E0
1.226646729E1,-1.948797455E0,-8.123157806E0,-5.061873779E0,9.767603105E0
1.227652529E1,-2.025438080E0,-8.556207275E0,-2.977907410E0,9.283265314E0
1.228658429E1,-2.389630737E0,-9.138047333E0,-1.433269501E0,9.553455164E0
1.229664229E1,-3.193309479E0,-9.752070465E0,-4.141886902E-1,1.026993944E1
1.230670029E1,-3.945345612E0,-1.000294876E1,7.035369873E-3,1.075289661E1
1.231675929E1,-4.216431885E0,-9.591155090E0,-2.960842896E-1,1.048123178E1
1.232681729E1,-4.204756165E0,-8.889713745E0,-7.259902954E-1,9.860732568E0
1.233687529E1,-4.336033173E0,-8.303083649E0,-3.749702454E-1,9.374592494E0
1.234693429E1,-4.720882874E0,-7.962841187E0,4.299060059E-1,9.267059622E0
1.235699229E1,-5.229225769E0,-7.798333282E0,1.010548553E0,9.443516956E0
1.236705029E1,-5.874384155E0,-7.671397247E0,1.141825562E0,9.729465070E0
1.237710929E1,-6.280339966E0,-7.626041565E0,1.052012329E0,9.935084800E0
1.238716729E1,-6.571933594E0,-7.715555420E0,9.033714294E-1,1.017527329E1
1.239722529E1,-6.823111267E0,-7.788902893E0,7.629634094E-1,1.038286901E1
1.240728429E1,-7.042554932E0,-7.725285187E0,7.044351196E-1,1.047730118E1
1.241734229E1,-7.463629303E0,-7.588469696E0,3.903881836E-1,1.065096416E1
1.242740129E1,-8.136629791E0,-7.572003937E0,-9.783654785E-1,1.115783075E1
1.243745929E1,-9.016649780E0,-7.541018372E0,-7.870932312E0,1.414632485E1
1.244751729E1,-9.496402130E0,-7.973768463E0,-1.437805069E1,1.898659997E1
1.245757629E1,-9.032367096E0,-8.394393768E0,-6.242319031E0,1.382085558E1
1.246763429E1,-8.409512329E0,-8.665030975E0,-6.897656250E-1,1.209456225E1
1.247769229E1,-7.862699432E0,-8.918903046E0,1.394949188E0,1.197141417E1
1.248775129E1,-7.132218475E0,-8.827592926E0,1.869013367E0,1.150165850E1
1.249780929E1,-6.311026154E0,-8.639284515E0,1.857936401E0,1.085901541E1
1.250786729E1,-5.857469330E0,-8.750054169E0,1.798509979E0,1.068213617E1
1.251792629E1,-5.852679291E0,-9.348958740E0,1.870210876E0,1.118725047E1
1.252798429E1,-6.138584747E0,-1.024454636E1,1.757644958E0,1.207154789E1
1.253804229E1,-6.439758453E0,-1.134371063E1,1.247206421E0,1.310365536E1
1.254810129E1,-6.645131378E0,-1.269689667E1,-3.966751099E-2,1.433075467E1
1.255815954E1,-6.492598572E0,-1.412148422E1,-2.362686768E0,1.572108271E1
1.256821754E1,-5.765859833E0,-1.475945755E1,-3.897894287E0,1.631809752E1
1.257827654E1,-5.497318268E0,-1.406160873E1,-2.597997437E0,1.531988704E1
1.258833454E1,-5.727838898E0,-1.339309891E1,-1.241518250E0,1.461932298E1
1.259839254E1,-6.289171600E0,-1.316212921E1,-8.542735291E-1,1.461249835E1
1.260845154E1,-7.370073853E0,-1.329445404E1,-2.337688751E0,1.537937858E1
1.261850954E1,-8.745713196E0,-1.317575089E1,-8.094866638E0,1.776555028E1
1.262856754E1,-8.467441864E0,-1.186552551E1,-1.113669113E1,1.834432219E1
1.263862654E1,-7.131919098E0,-1.094987961E1,-7.589218140E0,1.511159705E1
1.264868454E1,-6.415808258E0,-1.093535980E1,-1.679806824E0,1.278930962E1
1.265874354E1,-6.634952545E0,-1.100137253E1,3.084785156E0,1.321244460E1
1.266880154E1,-7.451803894E0,-1.101274887E1,6.114634552E0,1.463553124E1
1.267885954E1,-7.656877441E0,-1.111244156E1,8.003406830E0,1.568976260E1
1.268891854E1,-7.756570129E0,-1.094538895E1,8.804241486E0,1.604620165E1
1.269897654E1,-7.752678223E0,-1.032941986E1,8.653954010E0,1.554644185E1
1.270903454E1,-7.641010437E0,-9.538015594E0,7.374714203E0,1.427393399E1
1.271909354E1,-7.077582092E0,-9.158404999E0,5.344635773E0,1.274886983E1
1.272915154E1,-5.647156677E0,-8.970246277E0,3.035238190E0,1.102580463E1
1.273920954E1,-3.870800629E0,-8.746611328E0,4.363426208E-1,9.574795147E0
1.274926854E1,-2.021546173E0,-8.988957367E0,-2.540067902E0,9.557193543E0
1.275932654E1,-1.790576477E0,-9.660161591E0,-4.506828003E0,1.080908806E1
1.276938454E1,-3.333268433E0,-9.769733734E0,-3.324287109E0,1.084478033E1
1.277944354E1,-4.064647522E0,-9.351952515E0,-1.693727875E0,1.033678332E1
1.278950154E1,-4.252057800E0,-9.074429626E0,5.089416504E-3,1.002124216E1
1.279955954E1,-4.614753571E0,-8.758137360E0,1.406475220E0,9.998954599E0
1.280961854E1,-4.286037140E0,-8.365803223E0,2.329455872E0,9.684169690E0
1.281967654E1,-3.356470184E0,-8.257578278E0,2.611768799E0,9.288424375E0
1.282973454E1,-2.293231201E0,-8.383616180E0,1.527423706E0,8.824791940E0
1.283979354E1,-2.088457031E0,-8.357420654E0,8.114625549E-1,8.652549003E0
1.284985154E1,-2.947670288E0,-7.327262878E0,1.473535767E0,8.034229837E0
1.285990954E1,-3.673361206E0,-6.396797791E0,2.091750183E0,7.667334827E0
1.286996854E1,-4.052073669E0,-5.731581116E0,2.849624176E0,7.575663737E0
1.288002654E1,-4.103865967E0,-5.205724640E0,3.604953461E0,7.545659305E0
1.289008454E1,-4.093687134E0,-4.887187042E0,4.143533478E0,7.603403265E0
1.290014354E1,-4.120182037E0,-4.809199219E0,4.378993835E0,7.699343099E0
1.291020154E1,-4.270619202E0,-4.759502563E0,4.472549286E0,7.803508835E0
1.292026054E1,-4.427043915E0,-4.816234589E0,4.525239716E0,7.954409338E0
1.293031854E1,-4.597090302E0,-4.828509064E0,4.662803650E0,8.135691544E0
1.294037654E1,-4.839136963E0,-4.724924469E0,4.717140656E0,8.245821593E0
1.295043554E1,-5.236111450E0,-4.380640411E0,4.733905792E0,8.307631286E0
1.296049354E1,-5.719156952E0,-3.622916107E0,4.877008209E0,8.343829243E0
1.297055154E1,-6.172713776E0,-2.731220398E0,5.103337555E0,8.462033705E0
1.298061054E1,-6.407874756E0,-1.834285583E0,4.952301636E0,8.303659072E0
1.299066854E1,-6.575825500E0,-9.928852844E-1,4.509821777E0,8.035284355E0
1.300072654E1,-6.852749634E0,-3.769161987E-1,3.501368866E0,7.704662699E0
1.301078554E1,-7.568561096E0,-3.739224243E-1,1.594633942E0,7.743758290E0
1.302084354E1,-8.571026459E0,-1.445094910E0,-1.529818726E0,8.825595685E0
1.303090154E1,-8.920100555E0,-3.436403961E0,-5.578599243E0,1.106787403E1
1.304096054E1,-1.007689499E1,-5.705535278E0,-1.085572540E1,1.587273510E1
1.305101854E1,-1.431054108E1,-8.251740417E0,-2.004945694E1,2.597813560E1
1.306107654E1,-2.124502075E1,-1.271381149E1,-3.319018066E1,4.140748727E1
1.307113554E1,-2.171833649E1,-1.611429016E1,-2.690804443E1,3.814969649E1
1.308119354E1,-1.738903931E1,-1.614243164E1,-1.465946548E1,2.789008275E1
1.309125154E1,-1.275527527E1,-1.448253342E1,-7.132966919E0,2.057474273E1
1.310131054E1,-7.583679657E0,-1.045081741E1,-2.648442535E0,1.318127572E1
1.311136854E1,-2.528092804E0,-6.389313354E0,-1.254990234E0,6.984953748E0
1.312142654E1,4.191284180E-3,-4.397555237E0,-2.060315552E0,4.856275301E0
1.313148554E1,9.969268799E-1,-3.641327820E0,-2.536325684E0,4.548195188E0
1.314154354E1,1.471290436E0,-4.017944641E0,-2.932402039E-1,4.288888493E0
1.315160154E1,1.347647552E0,-5.703888702E0,3.650009766E0,6.904568889E0
1.316166054E1,4.490661621E-2,-9.157806244E0,8.032745819E0,1.218164345E1
1.317171854E1,-2.196981354E0,-1.340597214E1,9.813891907E0,1.675885707E1
1.318177654E1,-5.338797913E0,-1.691692108E1,9.085656281E0,1.993073336E1
1.319183554E1,-8.802744598E0,-2.079475708E1,6.771468658E0,2.357462666E1
1.320189354E1,-1.200683167E1,-2.673455521E1,-3.465144196E0,2.951114489E1
1.321195254E1,-1.473221420E1,-3.075534393E1,-2.894845139E1,4.473189190E1
1.322201054E1,-8.808133392E0,-1.834270615E1,-1.589499619E1,2.582032119E1
1.323206854E1,-6.763684845E0,-8.112380219E0,3.272943878E0,1.105759048E1
1.324212754E1,-5.699547729E0,-3.179538116E0,5.938001862E0,8.823501179E0
1.325218554E1,-3.375780029E0,-7.020401001E-2,5.068160706E0,6.089915627E0
1.326224354E1,-1.830693054E0,2.236349487E0,5.412295074E0,6.135603806E0
1.327230254E1,-1.428479462E0,3.249891815E0,5.387297058E0,6.451768748E0
1.328236054E1,-1.781146088E0,3.005150757E0,4.808899841E0,5.943814444E0
1.329241854E1,-3.586691437E0,1.811083832E0,4.682562561E0,6.170151720E0
1.330247754E1,-6.165229340E0,5.719606018E-1,4.854255524E0,7.867718121E0
1.331253554E1,-9.191186829E0,-7.783813477E-1,5.101391602E0,1.054077744E1
1.332259354E1,-1.195608719E1,-2.840193787E0,5.525310059E0,1.347381805E1
1.333265254E1,-1.407777512E1,-5.186265106E0,5.437293091E0,1.595760803E1
1.334271054E1,-1.514281036E1,-7.233707428E0,4.277654572E0,1.731847446E1
1.335276854E1,-1.443268707E1,-8.471633148E0,1.999541931E0,1.685435232E1
1.336282754E1,-1.257235565E1,-8.679101715E0,-5.593867493E-1,1.528737540E1
1.337288554E1,-1.013287857E1,-8.776249695E0,-2.866988068E0,1.370829703E1
1.338294354E1,-8.288264465E0,-8.565487976E0,-2.983894958E0,1.228684423E1
1.339300254E1,-7.267836456E0,-7.991880798E0,-1.552571411E0,1.091339010E1
1.340306054E1,-6.080355835E0,-7.476951599E0,-3.439846802E-1,9.643332295E0
1.341311854E1,-5.035079498E0,-7.151977386E0,4.619393921E-1,8.758778116E0
1.342317754E1,-4.413122864E0,-7.014413452E0,9.946815491E-1,8.346678434E0
1.343323554E1,-3.972439270E0,-7.057673492E0,1.313069458E0,8.204582883E0
1.344329354E1,-3.465293884E0,-7.303761749E0,1.412163391E0,8.206546340E0
1.345335254E1,-2.947071533E0,-7.977810059E0,9.078620911E-1,8.553063634E0
1.346341054E1,-1.930984497E0,-9.245523834E0,-1.185085602E0,9.519077685E0
1.347346854E1,-1.336720276E-1,-1.072714279E1,-4.599335632E0,1.167233263E1
1.348352754E1,-1.119372253E0,-1.114507370E1,-3.557801514E0,1.175260029E1
1.349358554E1,-2.051633606E0,-1.132799332E1,-2.409539337E0,1.176173936E1
1.350364354E1,-2.473905487E0,-1.124731110E1,-1.597927094E0,1.162650361E1
1.351370254E1,-2.662513275E0,-1.085243225E1,-7.981402588E-1,1.120273585E1
1.352376054E1,-2.861898651E0,-1.024469604E1,-7.409591675E-2,1.063718718E1
1.353381854E1,-3.350183258E0,-9.447154541E0,7.545808411E-1,1.005195747E1
1.354387754E1,-3.924987946E0,-8.527467041E0,1.446442108E0,9.498179788E0
1.355393554E1,-4.814588013E0,-7.934100952E0,1.849404144E0,9.463113195E0
1.356399329E1,-5.577701111E0,-7.705077209E0,1.835782471E0,9.687572542E0
1.357405229E1,-5.821993103E0,-7.572153625E0,1.465751953E0,9.663412596E0
1.358411029E1,-6.079008636E0,-7.357200623E0,1.136287079E0,9.611133925E0
1.359416929E1,-6.350394287E0,-6.972799988E0,1.071621552E0,9.491881796E0
1.360422729E1,-6.392606506E0,-6.421795807E0,1.103654938E0,9.128139654E0
1.361428529E1,-6.590045929E0,-6.106850739E0,1.004111938E0,9.040496229E0
1.362434429E1,-7.309749298E0,-6.566245422E0,5.545967102E-1,9.841523828E0
1.363440229E1,-8.065527649E0,-7.769742737E0,-1.256936188E0,1.126949542E1
1.364446029E1,-8.086783447E0,-9.567803650E0,-6.354136505E0,1.404684961E1
1.365451929E1,-7.386838989E0,-1.106424179E1,-6.312223663E0,1.472504683E1
1.366457729E1,-6.917564850E0,-1.104478226E1,-9.859996033E-1,1.306951085E1
1.367463529E1,-6.417903900E0,-1.083402054E1,7.704478455E-1,1.261582662E1
1.368469429E1,-5.952072601E0,-1.086934708E1,9.231303406E-1,1.242666664E1
1.369475229E1,-5.615722046E0,-1.103714813E1,8.797206116E-1,1.241486534E1
1.370481029E1,-5.368436279E0,-1.127874573E1,5.382806396E-1,1.250279806E1
1.371486929E1,-5.203778687E0,-1.139819733E1,-3.876937866E-2,1.252995283E1
1.372492729E1,-5.248984680E0,-1.113938553E1,-1.097667389E0,1.236295369E1
1.373498529E1,-5.758674774E0,-1.100825821E1,-3.121309204E0,1.280963134E1
1.374504429E1,-6.831493835E0,-1.130329468E1,-5.222340088E0,1.420234539E1
1.375510229E1,-8.077053680E0,-1.163365768E1,-4.988077240E0,1.501538217E1
1.376516029E1,-8.954229584E0,-1.152034332E1,-3.882176971E0,1.509860377E1
1.377521929E1,-9.560169525E0,-1.087368805E1,-3.972588959E0,1.501384015E1
1.378527729E1,-9.831555176E0,-1.005174728E1,-5.110372925E0,1.496038141E1
1.379533529E1,-1.061278061E1,-1.003617966E1,-8.125403137E0,1.671461009E1
1.380539429E1,-1.126961472E1,-1.081007034E1,-9.752220154E0,1.841107369E1
1.381545229E1,-9.842482452E0,-1.107965973E1,-6.139033813E0,1.604122990E1
1.382551029E1,-8.107889557E0,-1.096260315E1,-8.794212341E-1,1.366345207E1
1.383556929E1,-7.057374115E0,-1.143726608E1,3.227438507E0,1.382150296E1
1.384562729E1,-6.391858063E0,-1.230635880E1,5.318290558E0,1.485215576E1
1.385568529E1,-6.756799164E0,-1.298729279E1,6.323450317E0,1.594710421E1
1.386574429E1,-7.558981018E0,-1.319521042E1,7.179819489E0,1.681670538E1
1.387580229E1,-8.566984863E0,-1.330867447E1,7.544910278E0,1.753395896E1
1.388586029E1,-9.928703156E0,-1.335358109E1,7.712411957E0,1.834062628E1
1.389591929E1,-1.072040680E1,-1.286424866E1,7.210505676E0,1.823204343E1
1.390597729E1,-1.080303497E1,-1.159818146E1,4.779261475E0,1.655490012E1
1.391603529E1,-1.046473846E1,-9.948462067E0,2.043251038E0,1.458278174E1
1.392609429E1,-1.005983047E1,-8.348738708E0,-1.128802643E0,1.312157851E1
1.393615229E1,-8.689879303E0,-7.000791779E0,-9.658814392E0,1.475865113E1
1.394621029E1,-7.754624176E0,-6.065985718E0,-6.615792389E0,1.186166463E1
1.395626929E1,-7.200925598E0,-5.951174469E0,-1.398092651E-1,9.342877162E0
1.396632729E1,-6.407425690E0,-5.939349060E0,1.717378693E0,8.903951977E0
1.397638529E1,-6.172115021E0,-5.975723419E0,2.497256927E0,8.946539352E0
1.398644429E1,-5.705235901E0,-5.643115082E0,2.915487213E0,8.537829361E0
1.399650229E1,-4.829856262E0,-5.196593628E0,3.307222595E0,7.827503953E0
1.400656029E1,-3.884871368E0,-4.767136688E0,3.776945801E0,7.216864786E0
1.401661929E1,-2.652184753E0,-4.394112396E0,3.462300110E0,6.191108929E0
1.402667729E1,-1.461410980E0,-4.187991028E0,1.741179199E0,4.765154342E0
1.403673529E1,-9.945318604E-1,-3.975133667E0,3.588038635E-1,4.113334597E0
1.404679429E1,-1.554217987E0,-3.790118408E0,1.078058167E0,4.235894299E0
1.405685229E1,-2.090103607E0,-3.694916382E0,1.824555817E0,4.620599970E0
1.406691029E1,-2.312541046E0,-3.523971863E0,2.697690125E0,5.004373666E0
1.407696929E1,-2.277962952E0,-3.278332672E0,3.413651276E0,5.252579876E0
1.408702729E1,-2.104174347E0,-3.104993134E0,3.439996490E0,5.089411351E0
1.409708529E1,-2.091899872E0,-3.055895233E0,3.188519440E0,4.886839159E0
1.410714429E1,-2.374362488E0,-2.933150482E0,3.251987457E0,4.981605303E0
1.411720229E1,-2.783611450E0,-2.711311798E0,3.478017426E0,5.215008110E0
1.412726029E1,-3.097508698E0,-2.439477081E0,3.712280273E0,5.415407038E0
1.413731929E1,-3.180885315E0,-2.079326019E0,4.107757874E0,5.596007758E0
1.414737729E1,-3.244802399E0,-1.625619507E0,4.557123413E0,5.825697829E0
1.415743529E1,-3.168610840E0,-1.255888367E0,4.829556885E0,5.911173314E0
1.416749429E1,-2.874921570E0,-1.122665405E0,4.620142365E0,5.556191782E0
1.417755229E1,-2.910697174E0,-1.387913818E0,4.107159119E0,5.221802259E0
1.418761029E1,-3.638184357E0,-2.287393341E0,3.220852203E0,5.370516048E0
1.419766929E1,-4.542154541E0,-4.083807678E0,9.310638428E-1,6.178635198E0
1.420772729E1,-5.943540344E0,-7.422315216E0,-4.383634186E0,1.047056272E1
1.421778529E1,-8.076155548E0,-1.274898834E1,-1.440035431E1,2.085979857E1
1.422784429E1,-1.745026199E1,-2.318363937E1,-3.943025436E1,4.895648821E1
1.423790229E1,-2.914858521E1,-2.972054581E1,-4.692142639E1,6.272615975E1
1.424796029E1,-2.556398941E1,-2.496298920E1,-2.387220749E1,4.297151003E1
1.425801929E1,-2.088472000E1,-1.943648163E1,-1.074136322E1,3.048483609E1
1.426807729E1,-1.620350464E1,-1.293310547E1,-4.901257782E0,2.130354683E1
1.427813629E1,-1.020637573E1,-6.038742371E0,-2.191891937E0,1.205988828E1
1.428819429E1,-5.422922974E0,-7.107220459E-1,-1.148561554E0,5.588596698E0
1.429825229E1,-2.577639771E0,1.894011383E0,-1.520837402E-1,3.202285960E0
1.430831129E1,-1.423988800E0,2.535128174E0,1.757495270E0,3.397559210E0
1.431836929E1,-1.018332367E0,2.672692108E0,3.103496246E0,4.220423304E0
1.432842729E1,-9.611512756E-1,1.611997833E0,3.588338013E0,4.049508425E0
1.433848629E1,-1.431772614E0,-2.236948242E0,6.229595490E0,6.772131881E0
1.434854429E1,-2.913840637E0,-7.987988892E0,9.394913177E0,1.267133882E1
1.435860229E1,-4.896916809E0,-1.293894333E1,9.645192719E0,1.686492785E1
1.436866129E1,-5.877677307E0,-1.823328369E1,5.337001648E0,1.988676221E1
1.437871929E1,-7.679630127E0,-2.462888397E1,-5.112917633E0,2.630020097E1
1.438877729E1,-1.143651764E1,-2.590632751E1,-1.489058487E1,3.199470673E1
1.439883629E1,-9.301208038E0,-1.921254730E1,-1.308279419E1,2.503585326E1
1.440889429E1,-6.215375061E0,-9.882299652E0,-7.466473389E-1,1.169821421E1
1.441895229E1,-5.497617645E0,-4.911885681E0,4.064946899E0,8.418682439E0
1.442901129E1,-3.930825806E0,-2.005080414E0,4.395160217E0,6.228095400E0
1.443906929E1,-2.605781250E0,-1.504371643E-1,4.360432434E0,5.081938437E0
1.444912729E1,-2.335742798E0,6.460565186E-1,4.387825470E0,5.012593720E0
1.445918629E1,-2.924318848E0,4.291575623E-1,4.092489624E0,5.048196535E0
1.446924429E1,-4.582271118E0,-8.301736450E-1,3.536994781E0,5.847796933E0
1.447930229E1,-6.236630859E0,-2.191891937E0,3.057092743E0,7.283252761E0
1.448936129E1,-7.479047241E0,-3.425925751E0,2.708467712E0,8.660768571E0
1.449941929E1,-8.784033508E0,-5.172793121E0,2.529589691E0,1.050313560E1
1.450947729E1,-1.011566437E1,-7.082521820E0,2.349813538E0,1.257021896E1
1.451953629E1,-1.126572281E1,-8.673712921E0,2.006876678E0,1.435887740E1
1.452959429E1,-1.183873123E1,-9.577982483E0,1.340612183E0,1.528694040E1
1.453965229E1,-1.099957626E1,-9.841135254E0,1.026864624E-1,1.475971428E1
1.454971129E1,-8.894054718E0,-9.222920837E0,-6.128256226E-1,1.282739386E1
1.455976954E1,-7.140151978E0,-8.444689178E0,-3.604504395E-1,1.106455919E1
1.456982754E1,-5.958958282E0,-7.725734253E0,4.650828552E-1,9.767929956E0
1.457988654E1,-4.959636383E0,-7.178771667E0,1.018332367E0,8.784631837E0
1.458994454E1,-4.427043915E0,-6.935976563E0,1.255588989E0,8.323640574E0
1.460000254E1,-4.431384888E0,-6.850953369E0,1.391506348E0,8.277017821E0
1.461006154E1,-4.205654297E0,-6.926246796E0,1.477427673E0,8.236699295E0
1.462011954E1,-3.642375641E0,-7.040309601E0,1.433419189E0,8.055280886E0
1.463017754E1,-2.994073792E0,-7.342680817E0,1.057401123E0,7.999846035E0
1.464023654E1,-2.143841858E0,-8.256829834E0,-5.421725464E-1,8.547821236E0
1.465029454E1,-3.697311401E-1,-9.700278168E0,-3.534001007E0,1.033059828E1
1.466035254E1,-8.316705322E-1,-1.036280045E1,-2.966531067E0,1.081108762E1
1.467041154E1,-1.698667603E0,-1.040785675E1,-1.997146912E0,1.073301214E1
1.468046954E1,-2.352957001E0,-1.004920258E1,-1.092128906E0,1.037861381E1
1.469052754E1,-3.175646210E0,-9.716444550E0,-3.212319946E-1,1.022727791E1
1.470058654E1,-3.952530670E0,-9.340127106E0,8.891510010E-2,1.014240499E1
1.471064454E1,-4.749772797E0,-8.874894562E0,3.544628906E-1,1.007222612E1
1.472070254E1,-5.393284607E0,-8.364905090E0,4.170327759E-1,9.961579812E0
1.473076054E1,-5.932613068E0,-8.086484070E0,3.965254211E-1,1.003714874E1
1.474081954E1,-6.528074799E0,-8.053851929E0,4.927752686E-1,1.037897485E1
1.475087754E1,-6.823111267E0,-8.073161774E0,5.894741821E-1,1.058670242E1
1.476093654E1,-6.842271423E0,-7.971523132E0,5.313949585E-1,1.051875657E1
1.477099454E1,-6.857240295E0,-7.524702301E0,1.927990723E-1,1.018234063E1
1.478105254E1,-7.063810730E0,-6.993606720E0,-8.226892090E-1,9.974205458E0
1.479111154E1,-7.367379456E0,-7.060367889E0,-3.807631989E0,1.089151671E1
1.480116954E1,-6.813980255E0,-8.162076874E0,-9.300609283E0,1.412625778E1
1.481122754E1,-6.707850952E0,-9.579479370E0,-6.453380127E0,1.335693844E1
1.482128654E1,-7.309749298E0,-1.035816010E1,-1.390608215E0,1.275373304E1
1.483134454E1,-6.761439514E0,-1.054287598E1,8.478369141E-1,1.255341091E1
1.484140254E1,-5.833818512E0,-1.031040939E1,1.858086090E0,1.199126616E1
1.485146154E1,-5.439089355E0,-1.022673340E1,2.190544739E0,1.178847977E1
1.486151954E1,-5.212310944E0,-1.030786469E1,2.135309601E0,1.174648061E1
1.487157754E1,-5.116510162E0,-1.057700500E1,2.041155396E0,1.192551997E1
1.488163554E1,-5.198240204E0,-1.107696533E1,2.009271698E0,1.239992076E1
1.489169454E1,-5.155279541E0,-1.160012741E1,1.723066864E0,1.281049658E1
1.490175254E1,-5.102738800E0,-1.173574539E1,8.699908447E-1,1.282663429E1
1.491181054E1,-5.053940277E0,-1.166075134E1,-1.050814819E0,1.275224082E1
1.492186954E1,-5.694458313E0,-1.158755356E1,-4.877457275E0,1.380173331E1
1.493192754E1,-7.447762299E0,-1.139804764E1,-6.750661926E0,1.519723954E1
1.494198654E1,-8.884774017E0,-1.081770447E1,-4.989274750E0,1.486118440E1
1.495204454E1,-1.006432114E1,-1.054048096E1,-4.413122864E0,1.522721091E1
1.496210254E1,-1.160162430E1,-1.082713486E1,-6.400540009E0,1.711114981E1
1.497216054E1,-1.319176758E1,-1.160626465E1,-1.098385895E1,2.072132400E1
1.498221954E1,-1.243823456E1,-1.173080566E1,-1.034154465E1,1.998171730E1
1.499227754E1,-1.007524841E1,-1.086216202E1,-5.780828705E0,1.590330704E1
1.500233554E1,-8.303532715E0,-1.045246399E1,-8.722361755E-1,1.337772234E1
1.501239454E1,-7.222929840E0,-1.072265213E1,3.409609680E0,1.337054308E1
1.502245254E1,-6.602769470E0,-1.121827148E1,6.223907318E0,1.442855509E1
1.503251054E1,-6.878346405E0,-1.128922394E1,6.972650299E0,1.494577126E1
1.504256954E1,-7.654482422E0,-1.161584473E1,6.945257263E0,1.554849023E1
1.505262754E1,-8.785530396E0,-1.219184692E1,7.219636688E0,1.667182742E1
1.506268554E1,-9.812993774E0,-1.241623032E1,7.869884491E0,1.767463448E1
1.507274454E1,-9.861792297E0,-1.159593613E1,7.872578888E0,1.713762470E1
1.508280254E1,-9.517208862E0,-1.015847534E1,4.672084351E0,1.468333266E1
1.509286054E1,-9.274413757E0,-8.999285889E0,1.413360901E0,1.299998023E1
1.510291954E1,-8.737031250E0,-7.810009003E0,-2.164049835E0,1.191700748E1
1.511297754E1,-7.557184753E0,-6.896608429E0,-9.798773346E0,1.416651716E1
1.512303554E1,-6.808441772E0,-6.557862854E0,-5.573360138E0,1.097373172E1
1.513309454E1,-6.285878448E0,-6.614594879E0,-1.871109009E-2,9.124992241E0
1.514315254E1,-6.190826111E0,-6.848708038E0,2.076631622E0,9.462744244E0
1.515321054E1,-5.588927765E0,-6.917714539E0,2.184108124E0,9.157576988E0
1.516326954E1,-4.591551819E0,-6.777306519E0,2.383643188E0,8.526194145E0
1.517332754E1,-3.654350739E0,-6.589746552E0,2.547552338E0,7.954185178E0
1.518338554E1,-3.077450409E0,-6.169869690E0,2.457589417E0,7.319681602E0
1.519344454E1,-2.249073029E0,-5.771248627E0,2.088307343E0,6.536563910E0
1.520350254E1,-1.599573669E0,-5.401068420E0,1.163380737E0,5.751837163E0
1.521356054E1,-2.075434113E0,-4.751718750E0,1.229094086E0,5.328877002E0
1.522361954E1,-2.647095337E0,-4.175417175E0,1.884431305E0,5.290775336E0
1.523367754E1,-2.928061066E0,-3.642974396E0,2.441872101E0,5.273285827E0
1.524373554E1,-2.926414490E0,-3.134930878E0,2.989433441E0,5.227657762E0
1.525379454E1,-2.668650513E0,-2.797382812E0,3.404669952E0,5.151584576E0
1.526385254E1,-2.484234009E0,-2.539618835E0,3.493435364E0,4.982486636E0
1.527391054E1,-2.454445953E0,-2.287842407E0,3.420986023E0,4.791834011E0
1.528396954E1,-2.577939148E0,-2.208357697E0,3.303330688E0,4.736518511E0
1.529402754E1,-2.975063324E0,-2.146236877E0,3.275787964E0,4.918142058E0
1.530408554E1,-3.406017151E0,-1.902393951E0,3.359913025E0,5.148696060E0
1.531414454E1,-3.482957153E0,-1.501826935E0,3.755390625E0,5.337549383E0
1.532420254E1,-3.236270142E0,-1.168470154E0,4.420756989E0,5.601951382E0
1.533426054E1,-2.759212189E0,-7.894583130E-1,4.762346649E0,5.560255564E0
1.534431954E1,-2.408341827E0,-5.541476440E-1,4.574038239E0,5.198943717E0
1.535437754E1,-2.605032806E0,-7.864645386E-1,3.629203033E0,4.536059639E0
1.536443554E1,-3.470532990E0,-1.812281342E0,2.235002289E0,4.508236698E0
1.537449454E1,-4.799319763E0,-3.983665924E0,-4.999603271E-2,6.237432484E0
1.538455254E1,-6.675218811E0,-7.883506165E0,-4.719835052E0,1.135715891E1
1.539461054E1,-9.013506317E0,-1.358769424E1,-1.336076614E1,2.108029419E1
1.540466954E1,-1.665092422E1,-2.288950104E1,-3.234174500E1,4.297872735E1
1.541472754E1,-2.893932037E1,-3.027484314E1,-4.911556366E1,6.454757148E1
1.542478554E1,-2.643098648E1,-2.689981155E1,-2.950918533E1,4.788516396E1
1.543484454E1,-2.048609894E1,-2.103201370E1,-1.209424988E1,3.175368845E1
1.544490254E1,-1.496767456E1,-1.418510193E1,-5.464087372E0,2.133318188E1
1.545496054E1,-9.090596008E0,-7.015012207E0,-2.226470032E0,1.169643112E1
1.546501954E1,-4.310286713E0,-1.871558075E0,-1.175056458E0,4.843764946E0
1.547507754E1,-1.296903076E0,1.200653229E0,-1.105451202E0,2.084597833E0
1.548513554E1,-2.347119141E-1,2.519710236E0,4.138893127E-1,2.564241353E0
1.549519454E1,-7.752378845E-1,2.727328491E0,2.182162170E0,3.577868949E0
1.550525254E1,-2.176923065E0,9.780661011E-1,5.250481567E0,5.767422650E0
1.551531054E1,-3.492088165E0,-3.517535248E0,9.904902649E0,1.107586703E1
1.552536954E1,-5.089266815E0,-9.249565430E0,1.217523148E1,1.611494210E1
1.553542754E1,-6.773115234E0,-1.370879242E1,1.119222565E1,1.894919509E1
1.554548554E1,-8.069120178E0,-1.871079071E1,4.803061981E0,2.093498970E1
1.555554454E1,-9.515113220E0,-2.578807343E1,-1.404080200E1,3.086593967E1
1.556560167E1,-1.104672821E1,-2.214435059E1,-2.017654266E1,3.192953712E1
1.557565967E1,-7.458390198E0,-1.212763046E1,-6.953789520E0,1.584494221E1
1.558571867E1,-4.961133270E0,-5.303621063E0,3.168311462E0,7.923347603E0
1.559577667E1,-3.499871979E0,-1.763033752E0,5.274581451E0,6.571042639E0
1.560583467E1,-2.226470032E0,2.276765442E-1,5.452112274E0,5.893601078E0
1.561589367E1,-2.227817230E0,1.401834869E0,5.865103455E0,6.428666203E0
1.562595167E1,-3.650458832E0,1.112486572E0,5.266198883E0,6.503562618E0
1.563600967E1,-5.720653839E0,-4.257147217E-1,4.274361420E0,7.153829668E0
1.564606767E1,-7.856711884E0,-2.217488708E0,3.570525055E0,8.910321373E0
1.565612667E1,-9.208999786E0,-3.747756500E0,3.204386444E0,1.044602548E1
1.566618467E1,-9.841135254E0,-5.575455780E0,2.952160950E0,1.168969223E1
1.567624267E1,-9.482630768E0,-7.351961517E0,2.131118317E0,1.218660288E1
1.568630167E1,-8.935518494E0,-8.627309418E0,1.389560394E0,1.249819333E1
1.569635967E1,-8.816815338E0,-9.317224731E0,9.134005737E-1,1.286006260E1
1.570641767E1,-8.600814514E0,-9.613309021E0,4.156855774E-1,1.290591009E1
1.571647667E1,-7.838898926E0,-9.611512756E0,-1.207987976E-1,1.240339091E1
1.572653467E1,-6.827302551E0,-9.477391663E0,-3.668870544E-1,1.168621491E1
1.573659267E1,-5.823340302E0,-8.912765808E0,-6.047424316E-2,1.064670577E1
1.574665167E1,-4.743934937E0,-8.153843994E0,7.918533325E-1,9.466632044E0
1.575670967E1,-3.989503784E0,-7.780071259E0,1.535656586E0,8.877155534E0
1.576676767E1,-3.568279724E0,-7.833360443E0,1.660646667E0,8.766521738E0
1.577682667E1,-3.703448639E0,-7.923173676E0,1.569186859E0,8.885637868E0
1.578688467E1,-3.695664825E0,-7.838300171E0,1.483415222E0,8.791894494E0
1.579694267E1,-3.460653534E0,-7.697892151E0,1.337468719E0,8.545319715E0
1.580700167E1,-3.078198853E0,-7.854017487E0,7.110214233E-1,8.465603955E0
1.581705967E1,-2.461481323E0,-8.509354706E0,-1.659449158E0,9.012312651E0
1.582711767E1,-2.539469147E0,-8.992699585E0,-2.301763458E0,9.623703258E0
1.583717667E1,-3.456761627E0,-9.190438385E0,-1.356479187E0,9.912285026E0
1.584723467E1,-4.270768890E0,-9.373358002E0,-8.207432556E-1,1.033309860E1
1.585729267E1,-4.560865631E0,-9.227261810E0,-8.120613098E-1,1.032488738E1
1.586735167E1,-4.465813293E0,-8.847052460E0,-9.675878906E-1,9.957411909E0
1.587740967E1,-4.402944031E0,-8.421337738E0,-8.994795227E-1,9.545360593E0
1.588746767E1,-4.447102203E0,-7.889044647E0,-5.510041809E-1,9.072890888E0
1.589752667E1,-4.592599640E0,-7.436086578E0,6.855743408E-2,8.740254869E0
1.590758467E1,-4.934039612E0,-7.211852875E0,7.863148499E-1,8.773474786E0
1.591764267E1,-5.336253204E0,-7.141199799E0,1.287023621E0,9.007150638E0
1.592770167E1,-5.781577148E0,-7.318880310E0,1.516047363E0,9.449393786E0
1.593775967E1,-6.236331482E0,-7.673343201E0,1.553469543E0,1.000926040E1
1.594781767E1,-6.634204102E0,-8.128546600E0,1.398541718E0,1.058498242E1
1.595787667E1,-6.964567108E0,-8.374485168E0,1.152004395E0,1.095282205E1
1.596793467E1,-7.222630463E0,-8.425978088E0,6.652166748E-1,1.111782401E1
1.597799267E1,-7.099586334E0,-8.345744934E0,-7.653584290E-1,1.098368600E1
1.598805167E1,-6.080206146E0,-8.443940735E0,-6.369704132E0,1.220008904E1
1.599810967E1,-5.209017792E0,-9.147777100E0,-8.867260437E0,1.376386573E1
1.600816767E1,-5.860612793E0,-9.645342407E0,-2.393822021E0,1.153732189E1
1.601822667E1,-6.360573120E0,-1.002270767E1,7.295828247E-1,1.189301688E1
1.602828467E1,-6.480773163E0,-1.026520340E1,1.561852112E0,1.223986126E1
1.603834267E1,-6.292165375E0,-1.016371445E1,1.769320679E0,1.208399487E1
1.604840167E1,-5.902675323E0,-1.010563522E1,1.640139313E0,1.181759266E1
1.605845967E1,-5.595663757E0,-1.036878799E1,1.230740662E0,1.184643153E1
1.606851767E1,-5.357209625E0,-1.112082413E1,3.453318787E-1,1.234875210E1
1.607857667E1,-5.124293976E0,-1.182810333E1,-1.475332031E0,1.297455286E1
1.608863467E1,-4.917573853E0,-1.233509903E1,-4.725822601E0,1.409505587E1
1.609869267E1,-5.090314636E0,-1.266336639E1,-6.679859161E0,1.519515284E1
1.610875167E1,-6.741979980E0,-1.223001755E1,-4.668342133E0,1.472484436E1
1.611880967E1,-8.389154663E0,-1.177885574E1,-3.303480377E0,1.483348716E1
1.612886767E1,-9.398954773E0,-1.132125732E1,-3.381468201E0,1.509786559E1
1.613892567E1,-1.086096451E1,-1.106394241E1,-5.570665741E0,1.647433424E1
1.614898467E1,-1.321257431E1,-1.107756409E1,-1.063238983E1,2.025665963E1
1.615904267E1,-1.262878830E1,-1.083252365E1,-1.028855484E1,1.956231641E1
1.616910067E1,-9.799372101E0,-1.012015503E1,-5.526357880E0,1.513227884E1
1.617915967E1,-7.995173950E0,-9.797575836E0,-1.035845947E0,1.268811553E1
1.618921767E1,-7.245383148E0,-1.042147842E1,2.198328552E0,1.288159299E1
1.619927567E1,-7.091353455E0,-1.152932465E1,4.825215912E0,1.436994534E1
1.620933467E1,-7.591014404E0,-1.225082428E1,6.301895142E0,1.572959242E1
1.621939267E1,-8.206235046E0,-1.277787827E1,6.873107300E0,1.666901528E1
1.622945067E1,-9.471254425E0,-1.332528992E1,7.217690735E0,1.787073225E1
1.623950967E1,-1.104044128E1,-1.356479187E1,7.761210480E0,1.913455801E1
1.624956767E1,-1.168619843E1,-1.296319290E1,7.645950165E0,1.905445244E1
1.625962567E1,-1.171987839E1,-1.122530685E1,6.859036560E0,1.761844051E1
1.626968467E1,-1.061427750E1,-8.860075378E0,4.803211670E0,1.463675732E1
1.627974267E1,-9.204060059E0,-6.868167572E0,7.963439941E-1,1.151175969E1
1.628980067E1,-8.497828674E0,-5.243146820E0,-5.604495392E0,1.145050433E1
1.629985967E1,-7.917635193E0,-4.734205170E0,-9.543554077E0,1.327332174E1
1.630991767E1,-7.579338684E0,-5.337600403E0,-3.993246002E0,1.009367954E1
1.631997567E1,-7.477849731E0,-6.027066650E0,1.003513184E0,9.656645780E0
1.633003467E1,-6.875801697E0,-5.623056793E0,4.156406708E0,9.806688197E0
1.634009267E1,-3.297043762E0,-4.281396790E0,2.785258026E0,6.079351800E0
1.635015067E1,-1.373244324E0,-4.123624878E0,2.068548431E0,4.813416117E0
1.636020967E1,-2.317331085E0,-4.387975159E0,3.662433929E0,6.167476927E0
1.637026767E1,-3.205284576E0,-4.658911743E0,4.242926788E0,7.069776204E0
1.638032567E1,-2.487527161E0,-5.071603546E0,2.188299408E0,6.057855083E0
1.639038467E1,-1.592388611E0,-5.605992279E0,2.309696960E-1,5.832340690E0
1.640044267E1,-1.233135681E0,-5.842500458E0,-3.113525391E-1,5.979329027E0
1.641050067E1,-1.005010071E0,-5.920637970E0,-2.481838989E-1,6.010457093E0
1.642055967E1,-1.329984283E0,-6.244414673E0,3.454815674E-1,6.393819697E0
1.643061767E1,-1.896556091E0,-6.085894318E0,7.150630188E-1,6.414542055E0
1.644067567E1,-2.412383423E0,-5.023104401E0,9.541159058E-1,5.653451049E0
1.645073367E1,-3.403322754E0,-4.531376953E0,2.056872711E0,6.028823120E0
1.646079267E1,-4.000131683E0,-4.007167053E0,3.486849060E0,6.649553191E0
1.647085067E1,-3.937412109E0,-3.244652710E0,4.259691925E0,6.646499878E0
1.648090867E1,-3.562591553E0,-2.209106140E0,4.011208649E0,5.801896529E0
1.649096767E1,-3.614084473E0,-1.298100586E0,4.073778534E0,5.598423283E0
1.650102567E1,-4.031266937E0,-7.388635254E-1,4.424948273E0,6.031351395E0
1.651108367E1,-4.109404449E0,-4.050576782E-1,4.588857422E0,6.173239756E0
1.652114267E1,-3.847748566E0,-2.055226135E-1,4.480782166E0,5.909722276E0
1.653120067E1,-3.591631165E0,-1.642085266E-1,3.851939850E0,5.269176356E0
1.654125867E1,-3.658092957E0,-2.685415649E-1,2.874472504E0,4.660080560E0
1.655131767E1,-4.100872192E0,-5.962101746E-1,1.517244873E0,4.413009326E0
1.656137567E1,-5.134622498E0,-1.804497528E0,-1.093925171E0,5.551327031E0
1.657143367E1,-6.737938385E0,-4.887187042E0,-5.820645905E0,1.015698428E1
1.658149267E1,-8.443491669E0,-1.027882507E1,-1.258463013E1,1.831173700E1
1.659155067E1,-1.329864532E1,-2.062530945E1,-2.882031784E1,3.785324395E1
1.660160867E1,-2.680595673E1,-3.192725693E1,-4.639317490E1,6.237175425E1
1.661166767E1,-2.688184891E1,-2.998399796E1,-2.916594910E1,4.972249512E1
