"Time (s)","Acceleration x (m/s^2)","Acceleration y (m/s^2)","Acceleration z (m/s^2)","Absolute acceleration (m/s^2)"
6.847624987E-3,3.071911926E0,1.988464966E0,8.245902557E0,9.021393728E0
1.690462499E-2,3.041824493E0,1.884431305E0,7.961493988E0,8.728640450E0
2.696262498E-2,3.179987183E0,1.493893433E0,7.860005035E0,8.609513066E0
3.702062499E-2,3.092419281E0,1.022972717E0,7.938741302E0,8.580975682E0
4.707762500E-2,2.648442535E0,7.467970276E-1,8.229137421E0,8.677018863E0
5.713562499E-2,2.043550415E0,6.786886597E-1,8.628207550E0,8.892844434E0
6.719362500E-2,1.949845276E0,6.309379578E-1,9.301208038E0,9.524308388E0
7.725062498E-2,2.077829132E0,5.105882263E-1,9.971065063E0,1.019804946E1
8.730862499E-2,2.192640381E0,4.361929321E-1,1.011835876E1,1.036238970E1
9.736562500E-2,2.466421051E0,5.002597046E-1,1.005683670E1,1.036694058E1
1.074236250E-1,2.590063934E0,4.938230896E-1,9.743538208E0,1.009399967E1
1.174816250E-1,2.221380615E0,-2.625540161E-1,9.053173828E0,9.325418104E0
1.275386250E-1,1.771566010E0,-2.980302429E-1,8.188871155E0,8.383607752E0
1.375966250E-1,2.033221893E0,1.730401611E-1,7.875273285E0,8.135346549E0
1.476546250E-1,2.660267944E0,3.749702454E-1,8.167914734E0,8.598398649E0
1.577116250E-1,3.367547150E0,5.310955811E-1,8.528664551E0,9.184800234E0
1.677696250E-1,3.455863495E0,4.014651489E-1,8.936416626E0,9.589771054E0
1.778266250E-1,3.406915283E0,1.612147522E-1,9.681716766E0,1.026492579E1
1.878846250E-1,3.559897156E0,1.377136230E-2,1.037432648E1,1.096812232E1
1.979426250E-1,3.515589294E0,-2.540217590E-1,1.048195267E1,1.105871723E1
2.079996250E-1,3.221900024E0,-6.146218872E-1,1.040186920E1,1.090675400E1
2.180576250E-1,3.026855621E0,-7.714956665E-1,1.034558624E1,1.080685964E1
2.281156250E-1,3.223696289E0,-7.170089722E-1,1.012629227E1,1.065120250E1
2.381726250E-1,3.644620972E0,-4.992118835E-1,9.771979065E0,1.044145820E1
2.482306250E-1,4.113745422E0,-1.552272034E-1,9.188791809E0,1.006880786E1
2.582886250E-1,4.369413757E0,2.158511353E-1,8.530161438E0,9.586554253E0
2.683456250E-1,4.379592590E0,5.399272156E-1,8.027207336E0,9.160153398E0
2.784036250E-1,4.459526367E0,7.012916565E-1,7.910300446E0,9.107800972E0
2.884606250E-1,4.604574738E0,6.662644958E-1,8.231981506E0,9.455767362E0
2.985186250E-1,4.483925629E0,3.948788452E-1,8.372539215E0,9.505836694E0
3.085766250E-1,4.042942657E0,1.710942078E-1,8.520132294E0,9.432248558E0
3.186336250E-1,3.693718872E0,9.131011963E-3,9.023834839E0,9.750550635E0
3.286916250E-1,3.594624939E0,5.912704468E-2,9.618248749E0,1.026818063E1
3.387496250E-1,3.908971252E0,2.553689575E-1,9.762997742E0,1.051957197E1
3.488066250E-1,4.429289246E0,4.507127380E-1,9.517358551E0,1.050722889E1
3.588646250E-1,4.624333649E0,5.941145325E-1,9.200617218E0,1.031449422E1
3.689216250E-1,4.463717651E0,6.321354675E-1,9.019493866E0,1.008343394E1
3.789796250E-1,4.091441803E0,5.408253479E-1,8.989107056E0,9.891230143E0
3.890376250E-1,3.608845367E0,3.186872864E-1,9.254205780E0,9.938090918E0
3.990946250E-1,3.347039795E0,6.616241455E-2,9.495354309E0,1.006820770E1
4.091526250E-1,3.173849945E0,-1.507365417E-1,9.339827728E0,9.865517066E0
4.192106250E-1,3.110232239E0,-2.386038208E-1,9.258696442E0,9.770053028E0
4.292676250E-1,3.186723175E0,-1.306782532E-1,9.054820404E0,9.600106976E0
4.393256250E-1,3.313060455E0,1.088237000E-1,8.841214600E0,9.442207781E0
4.493836250E-1,3.529360657E0,3.755690002E-1,8.876092072E0,9.559416780E0
4.594406250E-1,3.826043701E0,5.456153870E-1,8.956474915E0,9.754729594E0
4.694986250E-1,4.078418884E0,5.760021973E-1,8.890013123E0,9.797837131E0
4.795556250E-1,4.166585541E0,5.146298218E-1,8.687484283E0,9.648712976E0
4.896136250E-1,3.993695068E0,3.665876770E-1,8.462352448E0,9.364581986E0
4.996716250E-1,3.722608795E0,1.965412903E-1,8.465196533E0,9.249648483E0
5.097286250E-1,3.577261047E0,1.017883301E-1,8.650960236E0,9.361958687E0
5.197866250E-1,3.519780579E0,8.382568359E-2,8.887468414E0,9.559444381E0
5.298446250E-1,3.593128052E0,1.344204712E-1,9.085805969E0,9.771412803E0
5.399016250E-1,3.754492493E0,2.109114075E-1,9.192833405E0,9.932214431E0
5.499596250E-1,3.941004639E0,2.986289978E-1,9.147926788E0,9.965202525E0
5.600166250E-1,3.985761566E0,3.412902832E-1,9.018296356E0,9.865720627E0
5.700746250E-1,3.958667908E0,3.616479492E-1,8.822952576E0,9.677103544E0
5.801326250E-1,3.820954285E0,3.052153015E-1,8.738079071E0,9.541848557E0
5.901896250E-1,3.730991364E0,2.163002014E-1,8.801547089E0,9.562129129E0
6.002476250E-1,3.735032959E0,1.121168518E-1,9.023236084E0,9.766362210E0
6.103056250E-1,3.712130585E0,3.308120728E-2,9.333091736E0,1.004428241E1
6.203626250E-1,3.535797272E0,4.340972900E-2,9.596843262E0,1.022756801E1
6.304206250E-1,3.391647034E0,1.661544800E-1,9.705966339E0,1.028283324E1
6.404786250E-1,3.252137146E0,2.342628479E-1,9.618997192E0,1.015659304E1
6.505356250E-1,3.140020294E0,3.200344849E-1,9.320368195E0,9.840295362E0
6.605936250E-1,3.144960022E0,3.772155762E-1,9.095535736E0,9.631294589E0
6.706506250E-1,3.187621307E0,4.296066284E-1,8.868308258E0,9.433577413E0
6.807086250E-1,3.422033844E0,4.800517273E-1,8.769214325E0,9.425491243E0
6.907666250E-1,3.702999573E0,2.734812927E-1,8.896898804E0,9.640633080E0
7.008236250E-1,3.729195099E0,-6.795867920E-2,8.815917206E0,9.572455832E0
7.108816250E-1,3.622017975E0,-3.323089600E-1,8.324040070E0,9.084001681E0
7.209396250E-1,3.540287933E0,-3.046165466E-1,8.025411072E0,8.776881722E0
7.309966250E-1,3.694916382E0,-6.975494385E-2,8.340505829E0,9.122571474E0
7.410546250E-1,3.971092072E0,5.224136353E-2,8.457712097E0,9.343724917E0
7.511126250E-1,3.891607361E0,-3.095562744E-1,7.744744720E0,8.673033133E0
7.611696250E-1,3.886218567E0,-8.270301819E-1,7.403454437E0,8.402250370E0
7.712276250E-1,4.306694183E0,-1.436263275E0,6.746620331E0,8.131872655E0
7.812846250E-1,5.262905731E0,-2.419418793E0,6.224655762E0,8.502829140E0
7.913426250E-1,6.185437317E0,-3.350332947E0,6.493496704E0,9.573393604E0
8.014006250E-1,6.682553558E0,-4.298760681E0,7.089407501E0,1.064873533E1
8.114576250E-1,6.200705566E0,-5.577551422E0,7.547904053E0,1.124849701E1
8.215156250E-1,3.763024750E0,-6.145320740E0,6.630761261E0,9.792462262E0
8.315736250E-1,4.823120270E0,-4.705614624E0,9.171876984E0,1.138106434E1
8.416306250E-1,7.639363861E0,-3.649261322E0,1.017089951E1,1.323344948E1
8.516886250E-1,8.714877319E0,-4.048032074E0,8.801846466E0,1.303104568E1
8.617456250E-1,8.787326660E0,-4.614304504E0,8.287665710E0,1.293036422E1
8.718036250E-1,1.042507095E1,-3.688479767E0,7.274422760E0,1.323647286E1
8.818616250E-1,1.105780518E1,-2.389181671E0,6.204747162E0,1.290279550E1
8.919186250E-1,1.083297272E1,-1.845362549E0,5.753735046E0,1.240419799E1
9.019766250E-1,1.165341660E1,-8.789721680E-1,4.632566528E0,1.257121247E1
9.120346250E-1,1.060080551E1,-8.572673035E-1,2.629282379E0,1.095559722E1
9.220916250E-1,7.898774414E0,-2.763253784E0,1.623224487E0,8.524146084E0
9.321496250E-1,8.113727417E0,-4.737198944E0,3.606749725E0,1.006390928E1
9.422076250E-1,1.034214340E1,-5.811215515E0,5.147645416E0,1.293168238E1
9.522646250E-1,1.256187744E1,-5.544619904E0,6.435866547E0,1.516456240E1
9.623226250E-1,1.240679993E1,-4.130061493E0,5.516478424E0,1.419216779E1
9.723796250E-1,1.109373047E1,-2.685265961E0,2.760260010E0,1.174310625E1
9.824376250E-1,9.923014984E0,-2.068099365E0,-3.769161987E-1,1.014324047E1
9.924953750E-1,9.738149414E0,-2.165696411E0,-2.860701141E0,1.037812151E1
1.002552375E0,9.386231232E0,-2.273621979E0,-4.064048767E0,1.047793806E1
1.012610375E0,8.561745758E0,-2.139650574E0,-3.716172180E0,9.575569470E0
1.022668375E0,8.538244629E0,-2.081122284E0,-2.334994354E0,9.093123222E0
1.032725375E0,8.505313110E0,-2.068099365E0,-1.221909027E0,8.838011527E0
1.042783375E0,8.491541748E0,-2.918031921E0,5.710624695E-1,8.997071962E0
1.052841375E0,1.033645523E1,-3.460952911E0,2.500400391E0,1.118358189E1
1.062898375E0,1.103819595E1,-2.320175171E0,3.166365509E0,1.171541093E1
1.072956375E0,1.076276871E1,-1.300345917E0,2.682272186E0,1.116793060E1
1.083013375E0,1.091455307E1,-8.416996765E-1,6.987469482E-1,1.096923764E1
1.093071375E0,1.059137512E1,-2.106120300E-1,-2.082469482E0,1.079621524E1
1.103129375E0,1.034498749E1,1.911524963E-1,-6.043831787E0,1.198262109E1
1.113186375E0,9.419462128E0,-5.752537537E-1,-1.069540878E1,1.426355330E1
1.123244375E0,6.509064331E0,-1.665287018E0,-1.176104279E1,1.354485979E1
1.133302375E0,5.998925171E0,-1.240769806E0,-7.168892212E0,9.429720487E0
1.143359375E0,6.330335999E0,-1.548829193E0,-5.286406860E0,8.391550704E0
1.153417375E0,6.000871124E0,-1.814676361E0,-4.497996368E0,7.715923527E0
1.163474375E0,6.482868805E0,-1.497935028E0,-2.669249268E0,7.169120514E0
1.173532375E0,6.723717957E0,-2.566562805E0,5.547463989E-1,7.218266507E0
1.183590375E0,6.314618683E0,-3.482358398E0,3.111429749E0,7.853803168E0
1.193647375E0,3.131937103E0,-5.251978455E0,6.391708374E-1,6.148239347E0
1.203705375E0,1.652862854E0,-6.045478363E0,-2.972817993E0,6.936671469E0
1.213763375E0,2.169438629E0,-3.359613647E0,-5.280868378E0,6.624276462E0
1.223820375E0,3.320844269E0,-1.516496429E0,-5.774841156E0,6.832024477E0
1.233878375E0,4.056863708E0,-1.727557526E0,-5.844745789E0,7.321451460E0
1.243936375E0,5.250331879E0,-2.315235443E0,-5.885012054E0,8.219468771E0
1.253993375E0,4.681814117E0,-2.515219574E0,-5.466632080E0,7.624288769E0
1.264051375E0,4.099674683E0,-3.622616730E0,-4.746479645E0,7.242910568E0
1.274108375E0,4.488266602E0,-5.462291107E0,-4.606670380E0,8.438161720E0
1.284166375E0,4.896318054E0,-6.166426849E0,-4.863985291E0,9.255112289E0
1.294224375E0,5.857169952E0,-4.936434631E0,-5.207520905E0,9.262456515E0
1.304281375E0,7.634723511E0,-4.049379272E0,-3.236419830E0,9.228265758E0
1.314339375E0,9.713001709E0,-4.823719025E0,-5.604345703E-1,1.085931648E1
1.324397375E0,8.668623505E0,-4.428391113E0,7.316784668E-1,9.761712693E0
1.334454375E0,1.000953506E1,-5.440137177E0,-3.628454590E-1,1.139813763E1
1.344512375E0,1.197659454E1,-7.858358459E0,-1.291813660E0,1.438267698E1
1.354570375E0,1.450363953E1,-7.041806488E0,-4.021986237E0,1.661682796E1
1.364627375E0,1.230336502E1,-5.246889038E0,-5.419629822E0,1.443173665E1
1.374685375E0,1.143861328E1,-6.670728149E0,-5.810916138E0,1.446054059E1
1.384742375E0,1.218600906E1,-7.609126740E0,-4.642445984E0,1.509801084E1
1.394800375E0,1.163859741E1,-7.577841797E0,-4.186194763E0,1.450533911E1
1.404858375E0,1.045306274E1,-7.545359344E0,-3.903732147E0,1.346989581E1
1.414915375E0,1.031190628E1,-7.979456635E0,-3.175047455E0,1.341968948E1
1.424973375E0,1.070858139E1,-8.083789673E0,-2.581082611E0,1.366321186E1
1.435031375E0,1.013392639E1,-7.664511566E0,-2.571801910E0,1.296361704E1
1.445088375E0,1.053554123E1,-6.670428772E0,-2.906056824E0,1.280380472E1
1.455146375E0,1.193932205E1,-6.132597198E0,-3.561094666E0,1.388659622E1
1.465204375E0,1.222567657E1,-5.882467346E0,-3.242257690E0,1.394929477E1
1.475261375E0,8.379873962E0,-4.958289185E0,-3.198099518E0,1.024864673E1
1.485319375E0,3.100203094E0,-5.680237885E0,-2.652783508E0,6.993827421E0
1.495376375E0,1.796713715E0,-6.449039154E0,-1.486708374E0,6.857739276E0
1.505434375E0,1.691632233E0,-7.305258636E0,-1.938768311E0,7.745143376E0
1.515492375E0,3.330574036E0,-7.852670288E0,-3.523522797E0,9.228887634E0
1.525549375E0,7.964637451E0,-6.996899872E0,-4.552932129E0,1.153781819E1
1.535607375E0,1.165386566E1,-4.953948212E0,-5.520969086E0,1.381431458E1
1.545665375E0,1.279374527E1,-4.893773346E0,-6.474785614E0,1.515096645E1
1.555722375E0,1.034603531E1,-5.615422668E0,-6.631210327E0,1.351097216E1
1.565780375E0,5.284909973E0,-6.562503204E0,-6.129304047E0,1.041945727E1
1.575837375E0,1.140777740E0,-7.241491241E0,-2.987786865E0,7.916276878E0
1.585895375E0,-3.439846802E-1,-8.055797882E0,-7.339237976E-1,8.096471399E0
1.595953375E0,1.975891113E-2,-8.236172791E0,-1.728904724E0,8.415702240E0
1.606010375E0,1.772613831E0,-7.449708252E0,-3.217858429E0,8.306318420E0
1.616068375E0,3.711980896E0,-5.696703644E0,-4.563110962E0,8.188602825E0
1.626126375E0,3.519930267E0,-2.315385132E0,-3.928131409E0,5.760306742E0
1.636183375E0,4.842879181E0,3.481609955E0,-2.997516632E0,6.675342133E0
1.646241375E0,8.416697388E0,6.284680939E0,-5.961952057E0,1.207819861E1
1.656299375E0,1.205817490E1,8.066425781E0,-1.049063461E1,1.790307854E1
1.666356375E0,1.154668854E1,4.546794891E0,-1.166928360E1,1.703442220E1
1.676414375E0,1.108130630E1,1.281934204E0,-1.065544189E1,1.542650792E1
1.686471375E0,1.004186783E1,-4.140390015E-1,-7.655380554E0,1.263389842E1
1.696529375E0,7.785460052E0,-1.130299530E0,-3.897295532E0,8.779514663E0
1.706587375E0,5.130281525E0,-1.469194794E0,-1.452729034E0,5.530709133E0
1.716644375E0,2.417772217E0,-3.441343689E0,4.388873291E-1,4.228603903E0
1.726702375E0,2.460882568E-1,-6.587650909E0,1.951342163E0,6.874986558E0
1.736760375E0,-8.419990540E-1,-7.383545837E0,3.036585388E0,8.027861631E0
1.746817375E0,-1.087039490E0,-7.068900146E0,3.137325897E0,7.809853899E0
1.756875375E0,-8.827143860E-1,-7.319329376E0,3.180885315E0,8.029308724E0
1.766933375E0,-3.052153015E-1,-7.065906372E0,3.322041779E0,7.813843537E0
1.776990375E0,-5.629792786E-1,-5.885760498E0,3.861519928E0,7.061901901E0
1.787048375E0,-1.120719452E0,-6.263275452E0,4.160298615E0,7.602152066E0
1.797105375E0,-1.311273193E0,-7.497758331E0,1.273401947E0,7.717342153E0
1.807163375E0,-1.253792725E0,-6.450386353E0,-1.873204651E0,6.832889283E0
1.817221375E0,-1.080902252E0,-5.917195129E0,-6.280938721E-1,6.047813637E0
1.827278375E0,-1.035097504E0,-7.518115997E0,2.482737122E0,7.984828026E0
1.837336375E0,-8.355624390E-1,-1.208227478E1,5.204078064E0,1.318187987E1
1.847394375E0,-2.318678284E-1,-1.611878082E1,5.980962524E0,1.719420747E1
1.857451375E0,-2.416275330E0,-1.999392242E1,6.853647766E0,2.127364116E1
1.867509375E0,-5.054389343E0,-2.357776978E1,5.946234741E0,2.483577635E1
1.877567375E0,-5.683081970E0,-2.496598297E1,3.853436737E0,2.589298556E1
1.887624375E0,-5.446424103E0,-2.337853409E1,1.005309448E0,2.402561214E1
1.897682375E0,-4.587809601E0,-2.039673477E1,2.107168121E0,2.101225699E1
1.907739375E0,-4.089346161E0,-1.638777145E1,1.051712952E0,1.692299930E1
1.917797375E0,-5.314248962E0,-1.362062576E1,-2.995420990E0,1.492431691E1
1.927855375E0,-6.619534607E0,-1.088940536E1,-1.570519089E1,2.022499465E1
1.937912375E0,-8.232280884E0,-9.395661621E0,-3.097059631E1,3.339501073E1
1.947970375E0,-7.896828461E0,-8.496780853E0,-1.300241135E1,1.742463444E1
1.958028375E0,-6.580615540E0,-8.437803497E0,-7.638016663E0,1.314687519E1
1.968085375E0,-4.850064240E0,-8.720565491E0,-3.634741516E0,1.061992144E1
1.978143375E0,-3.129691772E0,-9.206455078E0,-1.710642700E0,9.873200299E0
1.988200917E0,-2.286195831E0,-1.002525238E1,-1.711241455E0,1.042404547E1
1.998258917E0,-2.002835083E0,-1.087174210E1,-2.344424744E0,1.130055096E1
2.008316917E0,-2.103425903E0,-1.165850601E1,-3.190465393E0,1.226883174E1
2.018373917E0,-2.046843567E0,-1.187300995E1,-3.682641907E0,1.259840408E1
2.028431917E0,-1.631607056E0,-1.142873383E1,-3.722309418E0,1.212986751E1
2.038489917E0,-1.333427124E0,-1.056562866E1,-3.320245514E0,1.115502430E1
2.048546917E0,-1.118025055E0,-9.477691040E0,-2.346670074E0,9.827688839E0
2.058604917E0,-9.987231445E-1,-8.734935608E0,-1.297501831E0,8.887072577E0
2.068662917E0,-8.259823608E-1,-8.438851318E0,-8.729846191E-1,8.523999095E0
2.078719917E0,-5.575904846E-1,-8.554860077E0,-1.221759338E0,8.659632438E0
2.088777917E0,-3.273692322E-1,-8.786727905E0,-1.764680328E0,8.968157813E0
2.098834917E0,-4.315525818E-1,-9.008267212E0,-1.872007141E0,9.210837450E0
2.108892917E0,-6.427633667E-1,-9.249565430E0,-1.584754486E0,9.406330430E0
2.118950917E0,-8.671467590E-1,-9.506281586E0,-1.133892059E0,9.612858279E0
2.129007917E0,-1.022074585E0,-9.589358826E0,-6.966513062E-1,9.668803555E0
2.139065917E0,-1.084794159E0,-9.464368744E0,-3.921844482E-1,9.534404162E0
2.149123917E0,-1.115630035E0,-9.032067719E0,-2.836601257E-1,9.105127166E0
2.159180917E0,-1.022224274E0,-8.344547424E0,-1.428030396E-1,8.408139324E0
2.169238917E0,-1.056952057E0,-7.783364410E0,1.086740112E-1,7.855553401E0
2.179296917E0,-1.210532684E0,-7.445516968E0,5.183720398E-1,7.561072799E0
2.189353917E0,-1.354982300E0,-7.350165253E0,8.764274597E-1,7.525226333E0
2.199411917E0,-1.492396545E0,-7.440577240E0,8.901988220E-1,7.640804346E0
2.209468917E0,-1.561552734E0,-7.522456970E0,6.030958557E-1,7.706460304E0
2.219526917E0,-1.471290436E0,-7.554490356E0,2.842588806E-1,7.701676649E0
2.229584917E0,-1.253044281E0,-7.536078644E0,-2.574645996E-2,7.639585341E0
2.239641917E0,-9.982740784E-1,-7.536677399E0,-2.649490356E-1,7.607118728E0
2.249699917E0,-6.131250000E-1,-7.702981567E0,-2.785707092E-1,7.732363735E0
2.259757917E0,-1.044827271E-1,-8.128845978E0,-1.094224548E-1,8.130253800E0
2.269814917E0,2.751278687E-1,-8.721164246E0,2.392025757E-1,8.728781073E0
2.279872917E0,5.077441406E-1,-9.309291229E0,6.475534058E-1,9.345588944E0
2.289930917E0,7.421566772E-1,-9.829908600E0,8.873547363E-1,9.897742068E0
2.299987917E0,9.720785522E-1,-1.029903305E1,8.812174988E-1,1.038227156E1
2.310045917E0,9.467811584E-1,-1.083387085E1,4.451742554E-1,1.088426995E1
2.320102917E0,4.683760071E-1,-1.172960815E1,-6.590794373E-1,1.175744314E1
2.330160917E0,-2.052232361E-1,-1.295945068E1,-1.977687378E0,1.311109172E1
2.340218917E0,-5.927673340E-1,-1.430754730E1,-2.919379120E0,1.461437845E1
2.350275917E0,-6.270460510E-1,-1.537437881E1,-3.579955444E0,1.579812621E1
2.360333917E0,-4.706213379E-1,-1.526510605E1,-3.424279175E0,1.565153778E1
2.370391917E0,-8.831634521E-2,-1.363559464E1,-2.614014130E0,1.388417483E1
2.380448917E0,-2.776725769E-1,-1.170625671E1,-1.983824615E0,1.187640974E1
2.390506917E0,-1.537303162E0,-1.024349854E1,-1.800006866E0,1.051344796E1
2.400564917E0,-3.057242432E0,-9.075028381E0,-1.772015076E0,9.738732404E0
2.410621917E0,-3.958967285E0,-7.971523132E0,-1.181493073E0,8.978559400E0
2.420679917E0,-4.137246552E0,-7.009623413E0,-4.760101318E-2,8.139649580E0
2.430736917E0,-4.145180054E0,-6.255042572E0,9.349557495E-1,7.561892456E0
2.440794917E0,-4.274660797E0,-5.815706177E0,1.550475769E0,7.382353173E0
2.450852917E0,-4.518653412E0,-5.794001312E0,1.906734924E0,7.591068300E0
2.460909917E0,-4.475692749E0,-6.624923401E0,1.818717957E0,8.199339648E0
2.470967917E0,-4.087998962E0,-8.179141388E0,1.368603973E0,9.245710692E0
2.481025917E0,-3.556903381E0,-9.979597321E0,1.059646454E0,1.064738348E1
2.491082917E0,-2.959495697E0,-1.159114609E1,8.445437622E-1,1.199277018E1
2.501140917E0,-2.382445679E0,-1.279524216E1,6.333329773E-1,1.303055563E1
2.511197917E0,-1.608255615E0,-1.342318634E1,2.483335876E-1,1.352146764E1
2.521255917E0,-5.312452698E-1,-1.336840027E1,-3.899391174E-1,1.338463297E1
2.531313917E0,5.659730530E-1,-1.268731659E1,-1.239422607E0,1.276027022E1
2.541370917E0,1.679806824E0,-1.143277542E1,-2.248923340E0,1.177233031E1
2.551428917E0,2.571352844E0,-1.020892044E1,-3.416195984E0,1.106816638E1
2.561486917E0,3.187621307E0,-9.195378113E0,-4.357438660E0,1.066316932E1
2.571543917E0,3.445834351E0,-8.427624664E0,-4.625082092E0,1.021224834E1
2.581601917E0,3.293451233E0,-8.226443024E0,-4.152065735E0,9.785746559E0
2.591659917E0,2.826721802E0,-8.755742340E0,-3.275488586E0,9.766381395E0
2.601716917E0,2.377206573E0,-9.371262360E0,-2.406545563E0,9.963088419E0
2.611774917E0,2.044149170E0,-9.566905518E0,-1.744172974E0,9.937120628E0
2.621831917E0,1.551972656E0,-9.697733459E0,-1.528321838E0,9.939337051E0
2.631889917E0,1.138233032E0,-9.963880005E0,-2.030527496E0,1.023218066E1
2.641947917E0,1.300645294E0,-1.018916153E1,-3.401975555E0,1.082054197E1
2.652004917E0,2.026485901E0,-1.000130219E1,-5.514981537E0,1.159947033E1
2.662062917E0,3.009940796E0,-9.445358276E0,-8.370443573E0,1.297454670E1
2.672120917E0,3.651207275E0,-8.825497284E0,-1.059302170E1,1.426298796E1
2.682177917E0,3.951033783E0,-8.194409637E0,-1.186851929E1,1.495395491E1
2.692235917E0,4.464915161E0,-7.677384796E0,-1.298998718E1,1.573586578E1
2.702293917E0,4.334985352E0,-7.259603577E0,-1.080647781E1,1.372129385E1
2.712350917E0,3.054997101E0,-6.550528107E0,-4.469854889E0,8.498354458E0
2.722408917E0,1.052311707E0,-5.172344055E0,2.755469971E0,5.954252070E0
2.732465917E0,2.133064270E-1,-4.011058960E0,3.608695679E0,5.399701669E0
2.742523917E0,-1.615141296E0,-3.912114716E0,1.284628601E0,4.423075129E0
2.752581917E0,-3.943249969E0,-3.525917816E0,8.930429077E-1,5.364591541E0
2.762638917E0,-3.217409363E0,-2.284549255E0,5.097799072E0,6.446583877E0
2.772696917E0,-2.434088287E0,-1.625170441E0,6.133794708E0,6.796278561E0
2.782754917E0,-1.984273682E0,-1.783840485E0,4.868026886E0,5.551316482E0
2.792811917E0,-1.761686554E0,-3.023861847E0,3.588338013E0,5.012329765E0
2.802869917E0,-2.472707977E0,-5.223088531E0,2.339035950E0,6.234262404E0
2.812927917E0,-3.977678375E0,-7.681576080E0,1.641037445E0,8.804631749E0
2.822984917E0,-6.148763580E0,-1.066696793E1,9.885443115E-1,1.235187104E1
2.833042917E0,-7.730075226E0,-1.450079544E1,-2.861898651E0,1.667985597E1
2.843099917E0,-5.458698578E0,-2.354887985E1,-2.295865723E1,3.333837240E1
2.853157917E0,-1.185834045E0,-3.316323669E1,-1.873668686E1,3.810865919E1
2.863215917E0,9.131011963E-1,-2.912523376E1,1.848056946E0,2.919808744E1
2.873272917E0,2.813399506E0,-2.190859085E1,4.641847229E0,2.257096178E1
2.883330917E0,2.299518127E0,-1.993719040E1,3.285966797E0,2.033659073E1
2.893388917E0,2.110610962E-1,-2.091016708E1,-3.201841736E-1,2.091368337E1
2.903445917E0,-5.884263611E-1,-2.226050903E1,-9.136400757E0,2.406969727E1
2.913503917E0,-2.102228394E0,-2.398477341E1,-6.003116455E0,2.481382935E1
2.923560917E0,-3.150498505E0,-2.583178253E1,2.582429810E0,2.615101477E1
2.933618917E0,-3.761078796E0,-2.684412735E1,4.102818146E0,2.741506892E1
2.943676917E0,-3.844455414E0,-2.774285843E1,4.229454803E0,2.832550651E1
2.953733917E0,-3.635340271E0,-2.824940506E1,3.859723663E0,2.874268693E1
2.963791917E0,-3.450474701E0,-2.868170609E1,3.314257965E0,2.907800450E1
2.973849917E0,-2.783012695E0,-2.902494232E1,3.132984924E0,2.932589352E1
2.983906917E0,-1.335672455E0,-2.863425476E1,2.633773041E0,2.878613081E1
2.993965125E0,-2.255809021E-1,-2.709829880E1,1.324296112E0,2.713157652E1
3.004023125E0,1.616638184E0,-2.320235046E1,-4.834197235E0,2.375567404E1
3.014080125E0,4.027375031E0,-1.797267563E1,-1.183079773E1,2.189074219E1
3.024138125E0,3.212020569E0,-1.487426880E1,-8.082143097E0,1.723026365E1
3.034195125E0,1.937720490E0,-1.105032074E1,-7.978558502E0,1.376668969E1
3.044253125E0,1.014590149E0,-6.280639343E0,-1.156674683E1,1.320096420E1
3.054311125E0,6.171665955E-1,-2.948867798E0,-1.480840576E1,1.511177015E1
3.064368125E0,1.912273407E0,-1.215622101E0,-1.486873032E1,1.504040119E1
3.074426125E0,3.616629181E0,-6.251000977E-1,-9.174421692E0,9.881334431E0
3.084484125E0,3.464096375E0,-6.948550415E-1,-4.540957031E0,5.753527438E0
3.094541125E0,2.620600433E0,-3.608995056E-1,-3.363505554E0,4.279131302E0
3.104599125E0,8.080197144E-1,8.075706482E-1,-4.070036316E0,4.227323246E0
3.114657125E0,-1.957180023E0,6.661148071E-1,-5.225782928E0,5.619881653E0
3.124714125E0,-2.685116272E0,-7.804769897E-1,-3.960164795E0,4.847875713E0
3.134772125E0,-2.313588867E0,-1.041683807E0,-1.354682922E0,2.876276138E0
3.144829125E0,-1.989063721E0,-1.251098328E0,7.536827087E-1,2.467723472E0
3.154887125E0,-1.663939819E0,-1.376387787E0,1.967358856E0,2.921239451E0
3.164945125E0,-1.417103119E0,-7.863148499E-1,2.093396759E0,2.647410486E0
3.175002125E0,-1.271755371E0,-1.398092651E-1,2.175126801E0,2.523506480E0
3.185060125E0,-1.262774048E0,2.130070496E-1,2.547851715E0,2.851581782E0
3.195118125E0,-1.417103119E0,6.831793213E-1,2.875969391E0,3.278126778E0
3.205175125E0,-1.480271759E0,9.372010803E-1,3.071013794E0,3.535629515E0
3.215233125E0,-1.321302338E0,1.222058716E0,3.269501038E0,3.732144746E0
3.225291125E0,-1.097817078E0,1.408121796E0,3.266956329E0,3.723038139E0
3.235348125E0,-8.038284302E-1,1.471739502E0,3.076402588E0,3.503770853E0
3.245406125E0,-5.752537537E-1,1.521136780E0,2.897674255E0,3.322843673E0
3.255463125E0,-3.977229309E-1,1.578317871E0,2.861898651E0,3.292375240E0
3.265521125E0,-2.233355713E-1,1.630559235E0,2.896327057E0,3.331262916E0
3.275579125E0,-6.316864014E-2,1.689386902E0,3.011138306E0,3.453255316E0
3.285636125E0,1.041833496E-1,1.710792389E0,3.110681305E0,3.551619764E0
3.295694125E0,1.743873596E-1,1.557062073E0,3.115022278E0,3.486863496E0
3.305752125E0,5.583389282E-2,1.190324707E0,2.863096161E0,3.101178801E0
3.315809125E0,1.137634277E-2,8.884025574E-1,2.396366730E0,2.555770340E0
3.325867125E0,-2.634521484E-2,7.438032532E-1,1.920655975E0,2.059819586E0
3.335925125E0,-7.334747314E-2,6.011499023E-1,1.449136505E0,1.570591502E0
3.345982125E0,-1.110690308E-1,5.715115356E-1,9.824070740E-1,1.141965597E0
3.356040125E0,-8.981323242E-2,5.815406799E-1,6.146218872E-1,8.508913229E-1
3.366097125E0,-9.505233765E-2,5.364843750E-1,3.579057312E-1,6.518795471E-1
3.376155125E0,-1.317260742E-1,4.730163574E-1,1.595681763E-1,5.162927812E-1
3.386213125E0,-1.661544800E-1,3.746708679E-1,2.844085693E-3,4.098702957E-1
3.396270125E0,-1.974394226E-1,2.327659607E-1,-1.639091492E-1,3.464513346E-1
3.406328125E0,-1.592687988E-1,1.522334290E-1,-3.342549133E-1,4.003347527E-1
3.416386125E0,-1.324745178E-1,1.002914429E-2,-8.265811157E-1,8.371895977E-1
3.426443125E0,-2.763253784E0,-2.099983063E0,-1.988435028E1,2.018496684E1
3.436501125E0,-5.552403717E0,-8.033643951E0,-3.572036911E1,3.703124885E1
3.446559125E0,-2.117945709E0,-7.787256317E0,-1.055979080E1,1.329045660E1
3.456616125E0,-1.423988800E0,-8.750353546E0,3.624263306E0,9.577667555E0
3.466674125E0,-1.897154846E0,-6.470893707E0,7.363936615E0,9.984949892E0
3.476731125E0,-1.855840759E0,-5.500012665E0,4.386328583E0,7.275586758E0
3.486789125E0,-2.284100189E0,-9.480235748E0,2.057471466E0,9.966201501E0
3.496847125E0,6.792275391E0,-2.913855606E1,-4.824437531E1,5.676891934E1
3.506904125E0,8.309370575E0,-6.142401810E1,-4.732453812E1,7.798440579E1
3.516962125E0,-2.395019531E-3,-5.010365891E1,2.545097443E1,5.619723072E1
3.527020125E0,3.885470123E0,-5.595873322E1,1.447325272E1,5.793057695E1
3.537077125E0,2.758763123E0,-4.719550644E1,1.286170395E1,4.899438774E1
3.547135125E0,3.525618439E0,-3.043994980E1,5.081932068E0,3.106197937E1
3.557192125E0,-8.440946960E-1,-6.701114960E0,-2.323318634E1,2.419500744E1
3.567250125E0,2.656376038E0,4.665797424E-1,-2.752356445E1,2.765539062E1
3.577308125E0,1.012135254E1,-4.006867676E0,-6.611750793E-1,1.090568284E1
3.587365125E0,8.879534912E0,-6.751410370E0,1.053973251E1,1.534645378E1
3.597423125E0,3.516936493E0,-6.627767487E0,1.511407013E0,7.653789605E0
3.607481125E0,-1.119821320E0,-4.396806793E0,-1.650662430E1,1.711883628E1
3.617538125E0,-2.952759705E0,-1.409828247E1,-8.702453156E0,1.682893489E1
3.627596125E0,-4.978646851E0,-2.504412048E1,-4.786446533E0,2.597893311E1
3.637654125E0,-1.963916016E-1,-2.579196533E1,-6.649322662E0,2.663601955E1
3.647711125E0,4.665498047E0,-2.148946243E1,-5.636379089E0,2.270093912E1
3.657769125E0,4.387376404E0,-1.687156540E1,-5.719306641E0,1.834691416E1
3.667826125E0,1.599423981E0,-1.347318237E1,-3.667223969E0,1.405465517E1
3.677884125E0,-1.305435333E0,-1.130868347E1,-1.578916626E0,1.149275689E1
3.687942125E0,-3.715124359E0,-1.091245743E1,-2.123933258E0,1.172155999E1
3.697999125E0,-5.473517761E0,-1.206506058E1,-1.635798340E0,1.334919172E1
3.708057125E0,-6.446195068E0,-1.412462769E1,5.484594727E-1,1.553574414E1
3.718115125E0,-7.435936890E0,-1.636097717E1,9.717791748E-1,1.799775226E1
3.728172125E0,-8.489595795E0,-1.871094040E1,-7.577243042E-1,2.056080430E1
3.738230125E0,-8.509205017E0,-2.202519836E1,-1.348096619E0,2.365022828E1
3.748287125E0,-6.499484253E0,-2.633009628E1,-3.821553040E-1,2.712311392E1
3.758345125E0,-3.160078583E0,-3.086701172E1,6.352789307E-1,3.103485280E1
3.768403125E0,1.107696533E-1,-3.327774857E1,1.124012604E0,3.329691012E1
3.778460125E0,3.846101990E0,-3.206646744E1,4.836442566E-1,3.229991867E1
3.788518125E0,6.723568268E0,-2.769420959E1,-1.446891174E0,2.853540099E1
3.798576125E0,8.524772644E0,-2.401381302E1,-3.187471619E0,2.568063355E1
3.808633125E0,9.585167542E0,-2.149395309E1,-2.963387604E0,2.372018386E1
3.818691125E0,9.482630768E0,-1.849987930E1,-2.224823456E0,2.090731116E1
3.828749125E0,8.504265289E0,-1.418929321E1,-2.415526886E0,1.671805432E1
3.838806125E0,7.361840973E0,-8.896000671E0,-4.511767731E0,1.239724076E1
3.848864125E0,6.826254730E0,-3.770509186E0,-7.818391571E0,1.104272339E1
3.858921125E0,6.625671844E0,-6.960525513E-2,-1.070738388E1,1.259176087E1
3.868979125E0,7.135062561E0,2.566263428E0,-1.489148300E1,1.671080763E1
3.879037125E0,7.448959808E0,3.292104034E0,-1.284493881E1,1.520912240E1
3.889094125E0,5.797144775E0,2.652035065E0,-6.851851501E0,9.358848569E0
3.899152125E0,3.699856110E0,2.443069611E0,-3.651207275E0,5.743591117E0
3.909210125E0,1.578617249E0,2.676883392E0,-3.033142548E0,4.342544280E0
3.919267125E0,-8.575666809E-1,2.827769623E0,-3.496878204E0,4.578193839E0
3.929325125E0,-2.317630463E0,1.858834534E0,-2.652334442E0,3.982656749E0
3.939383125E0,-1.910477142E0,3.097059631E-1,-1.347946930E0,2.358559226E0
3.949440125E0,-1.985770569E0,-8.836125183E-1,-8.943901062E-1,2.350316893E0
3.959498125E0,-2.133513336E0,-1.333726501E0,-6.206094360E-1,2.591497947E0
3.969555125E0,-1.831291809E0,-1.075214081E0,-6.002517700E-2,2.124457115E0
3.979613125E0,-1.610051880E0,-7.568261719E-1,3.243754578E-1,1.808389435E0
3.989670500E0,-1.553319855E0,-6.493496704E-1,5.496569824E-1,1.771039346E0
3.999727500E0,-1.583107910E0,-5.186714172E-1,7.806266785E-1,1.839736042E0
4.009785500E0,-1.487007751E0,-3.097059631E-1,9.291178894E-1,1.780553254E0
4.019843500E0,-1.274898834E0,-4.520599365E-2,9.346563721E-1,1.581452862E0
4.029900500E0,-1.142424316E0,2.871029663E-1,9.577084351E-1,1.518145869E0
4.039958500E0,-9.550140381E-1,5.590873718E-1,1.163979492E0,1.606075577E0
4.050016500E0,-7.940986633E-1,6.212081909E-1,1.453776855E0,1.769169141E0
4.060073500E0,-6.662644958E-1,7.059320068E-1,1.694326630E0,1.952688174E0
4.070131500E0,-6.063890076E-1,8.009843445E-1,1.888472900E0,2.139068359E0
4.080188500E0,-5.740562439E-1,8.702902222E-1,2.069147186E0,2.316962607E0
4.090246500E0,-5.481600952E-1,9.180409241E-1,2.229613495E0,2.472742398E0
4.100304500E0,-5.198689270E-1,9.316625977E-1,2.235151978E0,2.476724300E0
4.110361500E0,-4.285588074E-1,9.398954773E-1,2.176324310E0,2.409035837E0
4.120419500E0,-2.255809021E-1,9.635462952E-1,2.182162170E0,2.396067600E0
4.130477500E0,1.089733887E-1,9.241781616E-1,2.011217651E0,2.216072407E0
4.140534500E0,4.314028931E-1,7.518864441E-1,1.644031219E0,1.858569431E0
4.150592500E0,5.686674500E-1,4.204756165E-1,1.203946381E0,1.396305590E0
4.160650500E0,5.087919617E-1,2.032772827E-1,8.174501038E-1,9.840810871E-1
4.170707500E0,2.894979858E-1,1.886077881E-2,5.105882263E-1,5.872522028E-1
4.180765500E0,-1.631607056E-2,-1.173559570E-1,3.273692322E-1,3.481511870E-1
4.190822500E0,-2.254312134E-1,-2.210902405E-1,2.689906311E-1,4.147964393E-1
4.200880500E0,-3.147953796E-1,-2.841091919E-1,2.582130432E-1,4.964757191E-1
4.210938500E0,-3.695814514E-1,-2.884501648E-1,2.707868958E-1,5.414051068E-1
4.220995500E0,-4.517605591E-1,-3.161425781E-1,8.696914673E-2,5.582090692E-1
4.231053500E0,-9.452842712E-1,-6.562353516E-1,-1.542991333E0,1.924845304E0
4.241111500E0,-2.764750671E0,-2.580334167E0,-8.700357513E0,9.486737666E0
4.251168500E0,-1.959275665E0,-3.900438995E0,-5.984555054E0,7.407231918E0
4.261226500E0,-1.198557587E0,-4.760849762E0,1.904040527E0,5.265700435E0
4.271284500E0,-1.917512512E0,-1.056682617E1,1.178499298E0,1.080386645E1
4.281341500E0,-6.146667938E0,-4.366210419E1,-5.160713242E1,6.787825119E1
4.291399500E0,-4.937931519E0,-6.185497192E1,-8.609526398E1,1.061264114E2
4.301456500E0,-4.254303131E0,-4.805756378E1,1.030517029E1,4.933381261E1
4.311514500E0,-3.795956268E0,-5.731820618E1,2.519800049E1,6.272738853E1
4.321572500E0,-4.595443726E-2,-5.464476563E1,2.196502350E1,5.889409800E1
4.331629500E0,3.342100067E0,-3.713402939E1,1.813299225E1,4.145975373E1
4.341687500E0,5.407355347E0,-2.241124557E1,1.099912720E1,2.554377065E1
4.351745500E0,3.316353607E0,-1.040186920E1,1.924547882E0,1.108607093E1
4.361802500E0,-2.589016113E0,-9.108558655E-1,-1.945354614E1,1.964619862E1
4.371860500E0,-8.072712708E-1,-6.758445740E-1,-2.396501450E1,2.398812983E1
4.381917500E0,2.333347778E0,-7.886200562E0,-6.530469818E0,1.050160498E1
4.391975500E0,-1.104852448E0,-1.530776733E1,3.871249695E0,1.582829788E1
4.402033500E0,-4.048032074E0,-2.017474640E1,-3.102298737E0,2.080940204E1
4.412090500E0,-3.528013458E0,-2.248174896E1,-5.942791901E0,2.352004870E1
4.422148500E0,-1.272354126E-1,-2.159140045E1,-4.113296356E0,2.198008119E1
4.432206500E0,7.081024933E0,-1.416489395E1,-5.822142792E0,1.687253631E1
4.442263500E0,1.152857620E1,-7.103627930E0,-8.086783447E0,1.577230692E1
4.452321500E0,9.954599304E0,-4.524940338E0,-7.314539337E0,1.315566867E1
4.462379500E0,7.763156433E0,-3.256777496E0,-5.704936523E0,1.016953776E1
4.472436500E0,6.620133362E0,-3.280128937E0,-4.969216461E0,8.903848820E0
4.482494500E0,6.441554718E0,-8.165519714E-1,-4.825515289E0,8.089869104E0
4.492551500E0,5.685776367E0,1.302591248E0,-6.143075409E0,8.471255653E0
4.502609500E0,3.790268097E0,2.379900970E0,-6.706503754E0,8.062707577E0
4.512667500E0,5.089416504E-1,2.348316650E0,-7.059020691E0,7.456767786E0
4.522724500E0,-2.160157928E0,3.632945251E-1,-6.992109833E0,7.327200359E0
4.532782500E0,-2.823278961E0,-1.868564301E0,-7.312593384E0,8.058316117E0
4.542840500E0,-2.555485840E0,-3.918850708E0,-7.833510132E0,9.124241324E0
4.552897500E0,-1.721869354E0,-6.218668213E0,-6.673721924E0,9.283061603E0
4.562955500E0,7.723937988E-2,-8.573870544E0,-4.733606415E0,9.794092695E0
4.573013500E0,2.425556030E0,-9.961634674E0,-4.849914551E0,1.134192041E1
4.583070500E0,4.263733521E0,-9.663754120E0,-6.294410706E0,1.229581934E1
4.593128500E0,5.133125610E0,-8.324938202E0,-6.216871948E0,1.158892020E1
4.603185500E0,5.800737305E0,-6.898554382E0,-6.261928253E0,1.097498753E1
4.613243500E0,6.287974091E0,-5.857020264E0,-6.627617798E0,1.085212524E1
4.623301500E0,6.283034363E0,-5.563480682E0,-6.075865173E0,1.036074204E1
4.633358500E0,6.105952606E0,-5.788313141E0,-5.337151337E0,9.963554117E0
4.643416500E0,6.037095795E0,-5.918692017E0,-5.260660400E0,9.957509160E0
4.653474500E0,4.971761169E0,-6.222560120E0,-5.629792786E0,9.753626524E0
4.663531500E0,3.972439270E0,-6.381828918E0,-5.501958618E0,9.315554881E0
4.673589500E0,3.197800140E0,-6.200855255E0,-5.161117401E0,8.678344569E0
4.683647500E0,2.311044159E0,-5.845045166E0,-5.382507019E0,8.275074616E0
4.693704500E0,1.676813049E0,-5.373525696E0,-5.442981262E0,7.830231505E0
4.703762500E0,1.657952271E0,-4.853507080E0,-5.716911621E0,7.680391604E0
4.713819500E0,2.173031158E0,-4.713398438E0,-7.083419952E0,8.781402363E0
4.723877500E0,1.866917725E0,-5.392536163E0,-7.054979095E0,9.074004524E0
4.733935500E0,9.976753235E-1,-6.169570312E0,-6.271208954E0,8.853644201E0
4.743992500E0,3.435356140E-1,-7.074139252E0,-3.739074554E0,8.008878910E0
4.754050500E0,2.339634705E-1,-8.422535248E0,-7.176077271E-1,8.456287587E0
4.764108500E0,5.013075256E-1,-9.724378052E0,-1.345851288E0,9.829860295E0
4.774165500E0,1.541793823E-2,-1.014395554E1,-2.948418732E0,1.056377038E1
4.784223500E0,-5.498066711E-1,-1.056098831E1,-4.209995270E0,1.138247871E1
4.794280500E0,4.655319214E-2,-1.288131317E1,-2.975961456E0,1.322069373E1
4.804338500E0,5.295986938E-1,-1.548125656E1,-1.294508057E0,1.554430862E1
4.814396500E0,3.978726196E-1,-1.778346909E1,-8.054750061E-1,1.780614684E1
4.824453500E0,8.949888611E-1,-2.000679565E1,-3.040028229E0,2.025622495E1
4.834511500E0,1.382824402E0,-2.384152130E1,-3.934268646E0,2.420348758E1
4.844569500E0,1.338815918E0,-2.820404938E1,-3.462898865E0,2.844736364E1
4.854626500E0,1.017733612E0,-3.207769409E1,-1.173260193E0,3.211527330E1
4.864684500E0,6.298901367E-1,-3.370930115E1,9.241781616E-1,3.372784978E1
4.874742500E0,1.616638184E-1,-3.243724640E1,2.149380341E0,3.250878227E1
4.884799500E0,-4.390370178E-1,-2.991753616E1,2.885699158E0,3.005959054E1
4.894857500E0,-1.333127747E0,-2.819222397E1,3.094664612E0,2.839288064E1
4.904914500E0,-1.462758179E0,-2.694995728E1,2.434237976E0,2.709917661E1
4.914972500E0,-1.107846222E0,-2.513273621E1,5.927673340E-2,2.515721102E1
4.925030500E0,-9.545649719E-1,-2.230137405E1,-3.575464783E0,2.260633600E1
4.935087500E0,-6.372248840E-1,-1.888233398E1,-6.570287018E0,2.000293138E1
4.945145500E0,7.131170654E-1,-1.589664276E1,-6.567742310E0,1.721473282E1
4.955203500E0,2.385888519E0,-1.374741211E1,-5.312153320E0,1.492992889E1
4.965260500E0,3.329226837E0,-1.170416107E1,-4.998256073E0,1.315498770E1
4.975318500E0,4.010609894E0,-8.649313660E0,-7.752827911E0,1.228828544E1
4.985375500E0,4.888384552E0,-3.877686310E0,-1.209469894E1,1.360935330E1
4.995434000E0,5.676196289E0,-2.177970886E-1,-1.452624252E1,1.559738317E1
5.005492000E0,7.347620544E0,1.955084381E0,-1.733814514E1,1.893201414E1
5.015549000E0,8.465944977E0,8.045768738E-1,-1.213316895E1,1.481665809E1
5.025607000E0,6.869514771E0,-1.140478363E0,-4.918621674E0,8.525477303E0
5.035665000E0,4.845423889E0,-1.407373352E0,-2.713108063E0,5.728855713E0
5.045722000E0,3.288661194E0,-8.478369141E-1,-2.006726990E0,3.944752602E0
5.055780000E0,1.721420288E0,-4.758604431E-1,-1.317260742E0,2.219213111E0
5.065838000E0,-4.604425049E-1,-7.906558228E-1,-1.637145538E0,1.875470459E0
5.075895000E0,-2.841091919E0,-1.531614990E0,-2.682272186E0,4.196692966E0
5.085953000E0,-4.254003754E0,-7.209008789E-1,-2.386337585E0,4.930603724E0
5.096010000E0,-3.526067505E0,-2.739303589E-2,-5.237608337E-1,3.564860143E0
5.106068000E0,-2.574496307E0,-9.684860229E-2,1.235231323E0,2.857132708E0
5.116126000E0,-2.003134460E0,-1.272354126E-2,1.754950562E0,2.663186255E0
5.126183000E0,-1.713037720E0,1.309776306E-1,1.632056122E0,2.369654100E0
5.136241000E0,-1.749561768E0,2.627037048E-1,1.660796356E0,2.426566330E0
5.146299000E0,-1.758842468E0,3.989204407E-1,1.857487335E0,2.589000492E0
5.156356000E0,-1.561552734E0,5.721102905E-1,2.108964386E0,2.685793720E0
5.166414000E0,-1.249751129E0,7.012916565E-1,2.109862518E0,2.550530870E0
5.176472000E0,-9.529183960E-1,8.827143860E-1,2.002086639E0,2.386543330E0
5.186529000E0,-6.539900208E-1,1.081950073E0,1.872456207E0,2.259294393E0
5.196587000E0,-5.773493958E-1,1.106349335E0,1.685494995E0,2.097196832E0
5.206644000E0,-5.360353088E-1,1.108594666E0,1.683698730E0,2.085942808E0
5.216702000E0,-5.388793945E-1,1.065634003E0,1.893861694E0,2.238901281E0
5.226760000E0,-6.245013428E-1,1.016685791E0,2.179467773E0,2.484699519E0
5.236817000E0,-7.430548096E-1,9.907896423E-1,2.478695526E0,2.770870996E0
5.246875000E0,-8.509803772E-1,1.013841705E0,2.738704834E0,3.041799923E0
5.256933000E0,-1.025517426E0,1.034049683E0,2.812651062E0,3.167325486E0
5.266990000E0,-1.078656921E0,9.303153992E-1,2.641856232E0,3.001398315E0
5.277048000E0,-1.081051941E0,8.506809998E-1,2.322420502E0,2.699253313E0
5.287106000E0,-8.490344238E-1,5.866300964E-1,1.742825775E0,2.025447112E0
5.297163000E0,-6.280938721E-1,2.847079468E-1,1.067729645E0,1.271065349E0
5.307221000E0,-3.396437073E-1,6.182144165E-2,5.872288513E-1,6.811882723E-1
5.317278000E0,-3.300636292E-1,-1.369651794E-1,3.131488037E-1,4.751459070E-1
5.327336000E0,-3.935316467E-1,-2.664459229E-1,7.903564453E-2,4.817750719E-1
5.337394000E0,-4.381388855E-1,-2.433938599E-1,-1.200503540E-1,5.153817435E-1
5.347451000E0,-3.597019958E-1,-2.206411743E-1,-2.775228882E-1,5.050613894E-1
5.357509000E0,-2.429447937E-1,-1.904040527E-1,-5.456153870E-1,6.268748093E-1
5.367567000E0,-2.546205139E-1,-3.357518005E-1,-1.684896240E0,1.736789054E0
5.377624000E0,-4.343068542E0,-1.138158188E1,-5.146882004E1,5.289085069E1
5.387682000E0,-2.581831055E0,-1.799842209E1,-3.944836670E1,4.343711183E1
5.397739000E0,-1.123713226E0,-2.164184555E1,-8.549471283E0,2.329647333E1
5.407797000E0,-2.429148560E0,-2.716640717E1,1.906585236E0,2.734135162E1
5.417855000E0,5.107379150E-1,-2.622621231E1,1.041668839E1,2.822379249E1
5.427912000E0,1.592538300E0,-3.616030426E1,5.736820221E0,3.664716754E1
5.437970000E0,7.188052368E0,-4.922438736E1,-1.955832825E0,4.978487411E1
5.448028000E0,1.681842590E1,-4.667758347E1,-2.989882507E0,4.970508672E1
5.458085000E0,1.757240799E1,-3.775448914E1,5.580694885E0,4.201589137E1
5.468143000E0,1.376163254E1,-3.087853775E1,4.470902710E0,3.410066854E1
5.478201000E0,1.059541672E1,-2.493664398E1,-5.145998840E0,2.757862166E1
5.488258000E0,2.885848846E0,-1.578886688E1,-1.200264038E1,2.004195143E1
5.498316000E0,-5.079686737E0,-1.026625122E1,-5.500761108E0,1.270659294E1
5.508373000E0,-4.932692413E0,-9.949060822E0,-6.475534058E-1,1.112360513E1
5.518431000E0,-5.001848602E0,-8.830736389E0,1.772913208E0,1.030260238E1
5.528489000E0,-6.591093750E0,-9.299711151E0,1.313219147E0,1.147395698E1
5.538546000E0,-7.904163208E0,-1.011626312E1,-1.620679779E0,1.293990643E1
5.548604000E0,-8.247549133E0,-1.087278992E1,-3.720812531E0,1.414510775E1
5.558662000E0,-8.087531891E0,-1.263477585E1,-6.989116058E0,1.654972737E1
5.568719000E0,-6.698570251E0,-1.519175858E1,-4.725523224E0,1.726241413E1
5.578777000E0,-6.409671021E0,-1.589125397E1,-1.373244324E0,1.719016100E1
5.588835000E0,-7.108717346E0,-1.529025375E1,-9.361532593E-1,1.688792779E1
5.598892000E0,-6.442003784E0,-1.364786911E1,-4.555027771E-1,1.509871606E1
5.608950000E0,-4.339176636E0,-1.132440079E1,1.053808594E-1,1.212772082E1
5.619007000E0,-1.340761871E0,-9.566905518E0,-8.596623230E-1,9.698574271E0
5.629065000E0,1.655557251E0,-8.230634308E0,-2.524799652E0,8.766916459E0
5.639123000E0,3.883075104E0,-7.337441711E0,-3.124602356E0,8.870144475E0
5.649180000E0,5.015769653E0,-6.666536865E0,-3.298091583E0,8.970956865E0
5.659238000E0,5.597609711E0,-6.129004669E0,-3.641028442E0,9.063940690E0
5.669296000E0,6.153403931E0,-5.735323334E0,-4.323309631E0,9.457765055E0
5.679353000E0,6.430178375E0,-5.387895813E0,-5.269042969E0,9.906534663E0
5.689411000E0,6.423292694E0,-5.303171997E0,-5.976621552E0,1.025194262E1
5.699468000E0,6.220464478E0,-5.606441345E0,-6.026168518E0,1.031702815E1
5.709526000E0,6.136788483E0,-6.099366302E0,-5.849984894E0,1.044436525E1
5.719584000E0,6.239175568E0,-6.530469818E0,-5.452261963E0,1.054995300E1
5.729641000E0,6.588698730E0,-6.321055298E0,-4.907544708E0,1.036584228E1
5.739699000E0,6.398144989E0,-5.930517426E0,-4.480782166E0,9.807380132E0
5.749757000E0,5.321733398E0,-5.670059052E0,-4.712799683E0,9.092903654E0
5.759814000E0,4.576882324E0,-5.451962585E0,-5.149591370E0,8.785786198E0
5.769872000E0,3.549868011E0,-5.782175903E0,-5.090314636E0,8.482123801E0
5.779930000E0,2.126328278E0,-6.698869629E0,-5.468877411E0,8.905321240E0
5.789987000E0,1.526076508E0,-7.474107513E0,-5.907914429E0,9.648556655E0
5.800045000E0,1.607058105E0,-8.058342590E0,-5.780229950E0,1.004642122E1
5.810102000E0,2.518961792E0,-8.521479492E0,-5.819897461E0,1.062224024E1
5.820160000E0,3.555556183E0,-9.046138458E0,-7.345824280E0,1.218342050E1
5.830218000E0,3.320395203E0,-9.682465210E0,-8.225544891E0,1.313144111E1
5.840275000E0,1.731748810E0,-1.013811768E1,-6.201004944E0,1.200969801E1
5.850333000E0,4.781057739E-1,-9.878707123E0,-2.725083160E0,1.025882634E1
5.860391000E0,-6.572831726E-1,-9.478738861E0,-4.879852295E-2,9.501625801E0
5.870448000E0,-1.923799438E0,-9.255852356E0,1.005908203E0,9.507032051E0
5.880506000E0,-3.166814575E0,-9.095086670E0,6.619235229E-1,9.653365156E0
5.890563000E0,-4.122577057E0,-9.031468964E0,-8.035290527E-1,9.960358034E0
5.900621000E0,-4.585863647E0,-8.923842773E0,-2.699486389E0,1.039001165E1
5.910679000E0,-4.060755615E0,-8.911119232E0,-3.737278290E0,1.048165212E1
5.920736000E0,-2.131268005E0,-9.408834229E0,-3.698508911E0,1.033186493E1
5.930794000E0,1.347198486E-2,-1.019335281E1,-3.493435364E0,1.077537534E1
5.940852000E0,1.382525024E0,-1.048464706E1,-3.412154388E0,1.111224537E1
5.950909000E0,2.468816071E0,-1.072729248E1,-3.556454315E0,1.156798271E1
5.960967000E0,3.385210419E0,-1.094284424E1,-3.464695129E0,1.196702143E1
5.971025000E0,3.397784271E0,-1.120659576E1,-2.999911652E0,1.208851507E1
5.981082000E0,2.373614044E0,-1.142124939E1,-2.835852814E0,1.200504238E1
5.991139792E0,1.760489044E0,-1.108759323E1,-2.617007904E0,1.152747916E1
6.001196792E0,1.136436768E0,-1.053314621E1,-1.911075897E0,1.076526213E1
6.011254792E0,2.366578674E-1,-1.000968475E1,-1.016685791E0,1.006396770E1
6.021312792E0,-7.646099854E-1,-9.466015320E0,-2.836601257E-1,9.501080861E0
6.031369792E0,-1.552122345E0,-9.027277679E0,1.125659180E-1,9.160431058E0
6.041427792E0,-1.829645233E0,-8.894354095E0,2.622546387E-1,9.084377466E0
6.051485792E0,-1.845362549E0,-8.992400208E0,1.212478638E-1,9.180595050E0
6.061542792E0,-1.494641876E0,-9.037905579E0,4.849914551E-2,9.160788381E0
6.071600792E0,-8.628057861E-1,-8.952433319E0,1.146615601E-1,8.994645264E0
6.081658792E0,-2.453398132E-1,-8.991053009E0,-2.544708252E-3,8.994400053E0
6.091715792E0,3.635939026E-1,-9.056916046E0,-3.011737061E-1,9.069213549E0
6.101773792E0,7.047344971E-1,-9.066047058E0,-8.283773804E-1,9.131049724E0
6.111830792E0,8.638536072E-1,-9.103020172E0,-1.311273193E0,9.237459429E0
6.121888792E0,8.589138794E-1,-9.038654022E0,-1.783990173E0,9.252979008E0
6.131946792E0,8.345146179E-1,-9.208700409E0,-2.062710571E0,9.473719057E0
6.142003792E0,6.566844177E-1,-9.691895599E0,-2.011816406E0,9.920256044E0
6.152061792E0,4.860392761E-1,-1.023376877E1,-1.996248779E0,1.043797234E1
6.162119792E0,3.357518005E-1,-1.067220703E1,-2.075883179E0,1.087740884E1
6.172176792E0,1.487905884E-1,-1.077504318E1,-2.082619171E0,1.097547251E1
6.182234792E0,-1.432521057E-1,-1.060050613E1,-1.877994690E0,1.076652755E1
6.192291792E0,-2.101629639E-1,-1.024319916E1,-1.577569427E0,1.036609969E1
6.202349792E0,-1.079255676E-1,-9.890981598E0,-1.266665955E0,9.972342129E0
6.212407792E0,-1.005908203E-1,-9.685458984E0,-1.080153809E0,9.746023112E0
6.222464792E0,-2.050735474E-1,-9.484277344E0,-1.177301788E0,9.559268350E0
6.232522792E0,-3.447331238E-1,-9.323811035E0,-1.449435883E0,9.442094975E0
6.242580792E0,-7.521858215E-1,-9.292825470E0,-1.808239746E0,9.496953180E0
6.252637792E0,-1.261426849E0,-9.336684265E0,-2.066003723E0,9.645374132E0
6.262695792E0,-1.538949738E0,-9.302555237E0,-2.430944824E0,9.737319599E0
6.272753792E0,-1.286574554E0,-9.605225830E0,-2.517764282E0,1.001273061E1
6.282810792E0,-6.077362061E-1,-9.923913116E0,-2.264790344E0,1.019718933E1
6.292868792E0,-1.648072815E-1,-1.000339783E1,-1.934427338E0,1.019005096E1
6.302925792E0,-1.332229614E-1,-1.007105713E1,-1.643133087E0,1.020508826E1
6.312983792E0,-3.513194275E-1,-1.016595978E1,-1.366358643E0,1.026338636E1
6.323041792E0,-4.577481079E-1,-1.026370651E1,-1.206042023E0,1.034445465E1
6.333098792E0,-1.809736633E-1,-1.026625122E1,-1.094224548E0,1.032598629E1
6.343156792E0,4.680766296E-1,-1.024260040E1,-1.204545135E0,1.032380200E1
6.353214792E0,1.370699615E0,-1.006162674E1,-1.419498138E0,1.025329825E1
6.363271792E0,2.646945648E0,-9.798324280E0,-1.163979492E0,1.021608184E1
6.373329792E0,4.074526978E0,-9.687404938E0,-1.154100037E-1,1.051003825E1
6.383386792E0,5.313799896E0,-9.650731201E0,1.326242065E0,1.109648593E1
6.393444792E0,5.970933380E0,-9.616153107E0,2.778072968E0,1.165504764E1
6.403502792E0,5.682333527E0,-9.626631317E0,3.767964478E0,1.179654615E1
6.413559792E0,4.929998016E0,-9.493258667E0,4.109554138E0,1.145928775E1
6.423617792E0,4.041296082E0,-9.108259277E0,4.025429077E0,1.074693167E1
6.433675792E0,3.074456635E0,-8.540639648E0,3.697161713E0,9.801214921E0
6.443732792E0,2.268831940E0,-7.931855621E0,3.196752319E0,8.847663949E0
6.453790792E0,1.579964447E0,-7.504943390E0,2.717449036E0,8.136645021E0
6.463848792E0,8.640032959E-1,-7.441026306E0,2.177372131E0,7.801046313E0
6.473905792E0,-2.543211365E-1,-7.739056549E0,1.097817078E0,7.820669910E0
6.483963792E0,-2.309846649E0,-8.727750549E0,-1.973196716E0,9.241348737E0
6.494020792E0,-4.694837036E0,-1.014171021E1,-5.976471863E0,1.267335775E1
6.504078792E0,-5.916296997E0,-1.133832184E1,-7.391179962E0,1.477124414E1
6.514136792E0,-6.081852722E0,-1.195399155E1,-6.095773773E0,1.473245751E1
6.524193792E0,-5.938301239E0,-1.196611633E1,-4.315076752E0,1.403820676E1
6.534251792E0,-5.924829254E0,-1.141166931E1,-2.882256317E0,1.317714687E1
6.544309792E0,-5.148393860E0,-1.064481400E1,-2.147883453E0,1.201796271E1
6.554366792E0,-3.494932251E0,-9.870923309E0,-1.847458191E0,1.063309833E1
6.564424792E0,-1.732796631E0,-9.403744812E0,-1.709445190E0,9.713660665E0
6.574481792E0,-2.456391907E-1,-9.265881500E0,-1.506467285E0,9.390758344E0
6.584539792E0,8.719367981E-1,-9.340276794E0,-1.231638794E0,9.461394109E0
6.594597792E0,1.803000641E0,-9.399403839E0,-1.004411316E0,9.623328215E0
6.604654792E0,2.677482147E0,-9.441466370E0,-9.880952454E-1,9.863393436E0
6.614712792E0,3.400328979E0,-9.559720459E0,-1.074315948E0,1.020316849E1
6.624770792E0,3.941753082E0,-9.672885132E0,-1.348395996E0,1.053187048E1
6.634827792E0,4.286037140E0,-9.638307037E0,-2.038460999E0,1.074348175E1
6.644885792E0,4.431235199E0,-9.439370728E0,-2.839744720E0,1.080748422E1
6.654943792E0,4.669240265E0,-9.090745697E0,-3.548520813E0,1.081829293E1
6.665000792E0,5.091063080E0,-8.848249969E0,-3.629502411E0,1.083437763E1
6.675058792E0,5.460794220E0,-8.835975494E0,-3.081342316E0,1.083463921E1
6.685115792E0,5.733676758E0,-9.018895111E0,-2.332749023E0,1.093879501E1
6.695173792E0,6.127507782E0,-9.191935272E0,-1.341210938E0,1.112820167E1
6.705231792E0,6.537056122E0,-9.301357727E0,-3.969744873E-1,1.137567348E1
6.715288792E0,6.766379242E0,-9.340576172E0,2.136058044E-1,1.153585188E1
6.725346792E0,6.570137329E0,-9.307195587E0,7.592211914E-1,1.141783741E1
6.735404792E0,6.076763306E0,-9.286688232E0,1.376836853E0,1.118326027E1
6.745461792E0,5.256918182E0,-9.378896484E0,1.477876740E0,1.085278801E1
6.755519792E0,4.228107605E0,-9.462722168E0,9.782157898E-1,1.041042318E1
6.765577792E0,3.189417572E0,-9.465865631E0,4.222718811E-1,9.997665234E0
6.775634792E0,2.112107849E0,-9.293424225E0,9.460327148E-2,9.530880503E0
6.785692792E0,1.137783966E0,-9.049132233E0,1.396595764E-1,9.121450066E0
6.795749792E0,-3.565585327E-1,-8.900940399E0,3.158432007E-1,8.913676621E0
6.805807792E0,-1.861379242E0,-8.952283630E0,1.235830078E0,9.226884136E0
6.815865792E0,-2.532433777E0,-9.161099396E0,3.094065857E0,9.995609361E0
6.825922792E0,-2.561174011E0,-9.396709442E0,4.587061157E0,1.076563471E1
6.835980792E0,-2.913990326E0,-9.696985016E0,5.165009308E0,1.136662567E1
6.846038792E0,-3.863016815E0,-1.018497025E1,4.855602722E0,1.192616433E1
6.856095792E0,-4.588707733E0,-1.065798660E1,3.557801514E0,1.213700411E1
6.866153792E0,-5.338498535E0,-1.110151428E1,2.349065094E0,1.254038647E1
6.876210792E0,-5.602100372E0,-1.119671631E1,1.567989349E0,1.261778805E1
6.886268792E0,-4.593198395E0,-1.094793365E1,8.893006897E-1,1.190569521E1
6.896326792E0,-3.202290802E0,-1.081515976E1,5.424719238E-1,1.129232584E1
6.906383792E0,-2.687511292E0,-1.060529617E1,2.483335876E-1,1.094334014E1
6.916441792E0,-2.377505951E0,-1.050216064E1,-5.885760498E-1,1.078398509E1
6.926499792E0,-2.376158752E0,-1.079076050E1,-2.028132477E0,1.123387573E1
6.936556792E0,-2.760110321E0,-1.163216080E1,-3.803590393E0,1.254562369E1
6.946614792E0,-3.236270142E0,-1.270962021E1,-5.555547180E0,1.424331404E1
6.956671792E0,-3.723057861E0,-1.403481445E1,-6.947053528E0,1.609654402E1
6.966729792E0,-4.387975159E0,-1.533216660E1,-7.525600433E0,1.763418046E1
6.976787792E0,-5.397475891E0,-1.604528366E1,-7.785010986E0,1.863304242E1
6.986844792E0,-6.077511749E0,-1.581057175E1,-8.121062164E0,1.878462080E1
6.996902792E0,-6.080056458E0,-1.485825211E1,-8.111033020E0,1.798676177E1
7.006960792E0,-5.606890411E0,-1.383842285E1,-7.820936279E0,1.685545049E1
7.017017792E0,-5.472469940E0,-1.312964676E1,-7.445816345E0,1.605539574E1
7.027075792E0,-5.466632080E0,-1.266546204E1,-7.199279022E0,1.556045029E1
7.037132792E0,-5.327271881E0,-1.211849945E1,-6.877148895E0,1.491754107E1
7.047190792E0,-4.880750427E0,-1.131556915E1,-6.249803467E0,1.381752052E1
7.057248792E0,-4.163442078E0,-1.037267990E1,-5.522765350E0,1.246706362E1
7.067305792E0,-3.274889832E0,-9.370214539E0,-4.773573303E0,1.101421018E1
7.077363792E0,-2.471360779E0,-8.409063263E0,-4.223766632E0,9.729346002E0
7.087421792E0,-2.446063385E0,-7.371421051E0,-3.861370239E0,8.673595248E0
7.097478792E0,-2.810256042E0,-6.092630310E0,-3.126697998E0,7.402291773E0
7.107536792E0,-3.152444458E0,-4.672982483E0,-2.670297089E0,6.237399930E0
7.117594792E0,-2.154320068E0,-3.027604065E0,-3.193309479E0,4.899459844E0
7.127651792E0,-1.709744568E0,-2.117496643E0,-7.788304138E-1,2.830829443E0
7.137709792E0,-2.045196991E0,-2.586920471E0,5.496270447E0,6.409678391E0
7.147766792E0,-1.013542328E0,-3.945345612E0,7.948321381E0,8.931339923E0
7.157824792E0,5.881269836E-1,-4.400399323E0,6.723867645E0,8.057282647E0
7.167882792E0,1.146316223E0,-3.530558167E0,5.108876038E0,6.315021474E0
7.177939792E0,1.040935364E0,-3.062331848E0,4.499642944E0,5.541498841E0
7.187997792E0,7.717950439E-1,-3.122955780E0,3.681294708E0,4.888808763E0
7.198055792E0,4.712200928E-1,-3.457659760E0,2.595602417E0,4.349093158E0
7.208112792E0,2.692900085E-1,-3.750450897E0,1.761985931E0,4.152468358E0
7.218170792E0,1.627116394E-1,-4.109254761E0,1.284179535E0,4.308313689E0
7.228228792E0,1.890568542E-1,-4.572691040E0,1.193767548E0,4.729727984E0
7.238285792E0,4.520599365E-1,-5.237308960E0,1.372046814E0,5.432888347E0
7.248343792E0,8.455915833E-1,-6.122268677E0,1.666334839E0,6.401083554E0
7.258400792E0,1.011895752E0,-7.127877502E0,1.875150604E0,7.439540341E0
7.268458792E0,1.351389771E0,-8.814420319E0,2.907703400E0,9.379498863E0
7.278516792E0,2.347717896E0,-1.063762894E1,2.776276703E0,1.124182552E1
7.288573792E0,3.457809448E0,-1.167362457E1,5.918692017E-1,1.218935052E1
7.298631792E0,5.001698914E0,-1.323023758E1,-9.355994110E0,1.695850242E1
7.308689792E0,5.797893219E0,-1.808060120E1,-2.368614441E1,3.035715966E1
7.318746792E0,4.156706085E0,-2.539214676E1,-2.467453903E1,3.564929451E1
7.328804792E0,1.452878723E0,-2.956636642E1,-1.800590652E1,3.464813920E1
7.338861792E0,-9.190887451E-2,-3.071747269E1,-1.212313980E1,3.302335680E1
7.348919792E0,-6.921606445E-1,-2.839086090E1,-5.637726288E0,2.895348039E1
7.358977792E0,-1.102158051E0,-2.259596146E1,-4.574487305E-1,2.262744983E1
7.369034792E0,-3.068618774E0,-1.541868668E1,4.486170959E0,1.634864061E1
7.379092792E0,-4.756359100E0,-9.348958740E0,6.537205811E0,1.235965377E1
7.389150792E0,-5.382057953E0,-5.487139435E0,6.950646057E0,1.036275676E1
7.399207792E0,-5.764961700E0,-3.353925476E0,6.386169891E0,9.234000508E0
7.409265792E0,-6.221362610E0,-1.738185425E0,3.271446991E0,7.240787713E0
7.419322792E0,-9.529633026E0,1.171314240E0,-9.465865631E0,1.348289638E1
7.429380792E0,-9.838889923E0,4.985233154E0,-1.893771881E1,2.191559943E1
7.439438792E0,-4.632566528E0,5.052593079E0,-7.392078094E0,1.008127909E1
7.449495792E0,-1.798959045E0,3.159030762E0,-2.298320618E0,4.300930906E0
7.459553792E0,-8.909472656E-1,-5.771997070E-1,1.674867096E0,1.982958981E0
7.469611792E0,-5.038522339E-1,-5.468428345E0,2.395767975E0,5.991433870E0
7.479668792E0,1.171164551E0,-9.371112671E0,-7.659571838E-1,9.475023457E0
7.489726792E0,2.997067566E0,-1.205652832E1,-3.316802673E0,1.285859515E1
7.499783792E0,4.120331726E0,-1.439616302E1,-5.135071564E0,1.583021173E1
7.509841792E0,4.528233490E0,-1.570489151E1,-6.532266083E0,1.760167651E1
7.519899792E0,4.266278229E0,-1.560474976E1,-7.619455261E0,1.788198656E1
7.529956792E0,3.856580200E0,-1.433374283E1,-9.191336517E0,1.745881042E1
7.540014792E0,3.661236420E0,-1.234497849E1,-9.570947113E0,1.604388278E1
7.550072792E0,3.129392395E0,-9.648036804E0,-6.885232086E0,1.225904286E1
7.560129792E0,2.547702026E0,-7.064559174E0,-4.556824036E0,8.784271582E0
7.570187792E0,2.356399841E0,-4.920717316E0,-3.834276581E0,6.668414805E0
7.580245792E0,3.010240173E0,-3.147355042E0,-4.935985565E0,6.582654720E0
7.590302792E0,4.369862823E0,-1.791923676E0,-7.069947968E0,8.502402944E0
7.600360792E0,5.610632629E0,-1.225501556E0,-8.752149811E0,1.046810293E1
7.610417792E0,4.000281372E0,-1.567390594E0,-8.292605438E0,9.339500484E0
7.620475792E0,-2.005230103E0,-2.225272522E0,-5.996230774E0,6.702803074E0
7.630533792E0,-5.024301910E0,-2.750679932E0,-2.762804718E0,6.359476369E0
7.640590792E0,-5.852080536E0,-3.241958313E0,-2.941383362E0,7.308137682E0
7.650648792E0,-5.237907715E0,-4.499642944E0,-5.902226257E0,9.083982532E0
7.660706792E0,-2.209854584E0,-6.992109833E0,-4.938829651E0,8.841102619E0
7.670763792E0,-9.879455566E-3,-9.171278229E0,-7.539820862E-1,9.202224239E0
7.680821792E0,8.349636841E-1,-1.032358200E1,2.517464905E0,1.065885262E1
7.690878792E0,6.268963623E-1,-1.125644211E1,3.373235321E0,1.176771875E1
7.700936792E0,-1.743873596E-1,-1.208586731E1,2.081421661E0,1.226502816E1
7.710994792E0,-2.236349487E-1,-1.274868896E1,-7.352709961E-1,1.277183254E1
7.721051792E0,1.734143829E0,-1.434841232E1,-5.883215790E0,1.560437179E1
7.731109792E0,2.118993530E0,-1.779200134E1,-8.878038025E0,1.999662483E1
7.741167792E0,9.355545044E-2,-1.967553452E1,-4.511767731E0,2.018641769E1
7.751224792E0,-4.990621948E-1,-1.985052063E1,-2.285597076E0,1.998790100E1
7.761282792E0,-5.168751526E-1,-2.086660767E1,-1.757495270E0,2.094686767E1
7.771339792E0,-5.794450378E-1,-2.203717346E1,-1.983824615E0,2.213387293E1
7.781397792E0,-1.470392303E0,-2.067994583E1,-3.274889832E0,2.098921429E1
7.791455792E0,-2.247875519E0,-2.015244278E1,-2.959795074E0,2.049229809E1
7.801512792E0,-3.116070099E0,-2.044388672E1,-2.359992371E0,2.081422497E1
7.811570792E0,-3.590583344E0,-2.080748062E1,-1.882185974E0,2.119873021E1
7.821628792E0,-3.351530457E0,-2.154065598E1,-1.496737518E0,2.185115190E1
7.831685792E0,-2.585423584E0,-2.238654694E1,-4.647834778E-1,2.254014025E1
7.841743792E0,-1.814526672E0,-2.334919510E1,8.056246948E-1,2.343344725E1
7.851800792E0,-1.191522217E0,-2.449985229E1,2.090852051E0,2.461776086E1
7.861858792E0,-5.150788879E-1,-2.616903122E1,2.995720367E0,2.634497754E1
7.871916792E0,2.640509033E-1,-2.768986862E1,3.263214111E0,2.788273863E1
7.881973792E0,8.331674194E-1,-2.855402161E1,2.497406616E0,2.867513483E1
7.892031792E0,1.623673553E0,-2.778851349E1,-1.192869415E0,2.786145608E1
7.902089792E0,2.938688965E0,-2.416005890E1,-8.337961121E0,2.572675523E1
7.912146792E0,3.535348206E0,-1.983270767E1,-9.019793243E0,2.207241832E1
7.922204792E0,2.595602417E0,-1.602402786E1,-5.399721222E0,1.710741389E1
7.932261792E0,1.404678955E0,-1.236264175E1,-4.310885468E0,1.316783079E1
7.942319792E0,9.458830261E-1,-9.180409241E0,-5.345982971E0,1.066555870E1
7.952377792E0,9.536668396E-1,-5.667065277E0,-8.862171021E0,1.056234749E1
7.962434792E0,1.552122345E0,-2.199825439E0,-1.219708603E1,1.249068546E1
7.972492792E0,2.037263489E0,-1.826202393E-1,-1.336420898E1,1.351983263E1
7.982550792E0,2.859503632E0,9.969268799E-1,-1.136481674E1,1.176136403E1
7.992607750E0,2.836900635E0,8.021818542E-1,-6.746770020E0,7.362771668E0
8.002665750E0,1.650916901E0,2.050735474E-2,-3.406166840E0,3.785223864E0
8.012723750E0,7.150630188E-1,-2.646496582E-1,-1.400487671E0,1.594590944E0
8.022780750E0,6.227050781E-2,3.218307495E-2,-7.235952759E-1,7.269824549E-1
8.032838750E0,-8.069718933E-1,6.812333679E-1,-1.196162567E0,1.595646397E0
8.042895750E0,-1.636247406E0,8.825646973E-1,-1.362766113E0,2.305072124E0
8.052953750E0,-1.512005768E0,8.542735291E-1,-5.827381897E-1,1.831810171E0
8.063011750E0,-1.568288727E0,5.144801331E-1,4.460723877E-2,1.651123600E0
8.073068750E0,-2.024839325E0,3.861968994E-1,5.254074097E-2,2.062009424E0
8.083126750E0,-2.632126465E0,3.975732422E-1,-6.267466736E-1,2.734769753E0
8.093184750E0,-3.392245789E0,4.638853455E-1,-1.591340790E0,3.775564410E0
8.103241750E0,-4.017046509E0,4.968168640E-1,-1.998045044E0,4.513942140E0
8.113299750E0,-3.592529297E0,5.809419250E-1,-8.048762512E-1,3.727141807E0
8.123356750E0,-2.797682190E0,5.484594727E-1,4.673281860E-1,2.888984088E0
8.133414750E0,-2.246977386E0,5.099894714E-1,1.098116455E0,2.552421671E0
8.143472750E0,-1.753753052E0,5.514532471E-1,1.300046539E0,2.251637505E0
8.153529750E0,-9.828561401E-1,6.336323547E-1,1.413959656E0,1.834878214E0
8.163587750E0,-2.433938599E-1,7.231462097E-1,1.483714600E0,1.668409430E0
8.173645750E0,4.119433594E-1,6.465055847E-1,1.571581879E0,1.748581255E0
8.183702750E0,6.580316162E-1,6.264472961E-1,1.677112427E0,1.907392963E0
8.193760750E0,9.217831421E-1,6.468049622E-1,1.842069397E0,2.158995249E0
8.203817750E0,1.082249451E0,6.695576477E-1,2.039957886E0,2.404370914E0
8.213875750E0,1.190025330E0,6.355783081E-1,2.213596802E0,2.592321522E0
8.223933750E0,1.005758514E0,3.629951477E-1,2.343526611E0,2.575933354E0
8.233990750E0,4.167333984E-1,6.301895142E-2,2.261197815E0,2.300142098E0
8.244048750E0,2.598596191E-1,-2.037263489E-1,1.961820374E0,1.989414644E0
8.254106750E0,2.930905151E-1,-4.695735168E-1,1.653760986E0,1.743940004E0
8.264163750E0,3.284170532E-1,-7.008425903E-1,1.393901367E0,1.594364801E0
8.274221750E0,3.044668579E-1,-7.891589355E-1,1.251547394E0,1.510576967E0
8.284279750E0,3.864962769E-1,-7.872129822E-1,1.124162292E0,1.425771549E0
8.294336750E0,5.074447632E-1,-7.412585449E-1,9.770182800E-1,1.327226106E0
8.304394750E0,6.242019653E-1,-6.468049622E-1,8.259823608E-1,1.220750430E0
8.314451750E0,6.388714600E-1,-6.512956238E-1,5.502557373E-1,1.065422033E0
8.324509750E0,5.367837524E-1,-6.969506836E-1,1.442999268E-1,8.914592089E-1
8.334567750E0,4.909790039E-1,-8.740324402E-1,-4.763095093E-1,1.109893615E0
8.344624750E0,-1.965861969E0,-5.934109955E0,-2.135668854E1,2.225278453E1
8.354682750E0,-4.133803711E0,-1.559786407E1,-3.142609909E1,3.532678022E1
8.364739750E0,-5.540877686E0,-2.539349396E1,-1.605336685E1,3.054900077E1
8.374797750E0,-3.922742615E0,-2.602128845E1,5.137017517E0,2.681201804E1
8.384855750E0,-6.400540009E0,-3.374193329E1,-5.529501343E-1,3.434808187E1
8.394912750E0,-8.841663666E0,-5.574797150E1,-2.512390457E1,6.178367036E1
8.404970750E0,1.274749146E0,-5.791486542E1,-1.218570969E1,5.919669030E1
8.415028750E0,4.836143188E0,-4.393393890E1,1.015907410E1,4.535180322E1
8.425085750E0,6.032305756E0,-3.107537842E1,1.605666000E1,3.549484733E1
8.435143750E0,5.432353363E0,-2.343062576E1,1.257759476E1,2.714222866E1
8.445201750E0,4.385729828E0,-1.564920731E1,7.442972260E0,1.787540633E1
8.455258750E0,2.487976227E0,-6.315666504E0,-2.196532288E0,7.134593414E0
8.465316750E0,-4.267176361E0,-1.049317932E0,-1.395024033E1,1.462597236E1
8.475373750E0,-5.990841980E0,4.180805969E-1,-1.451351898E1,1.570691606E1
8.485431750E0,-3.644620972E0,-2.054777069E0,-3.853436737E0,5.688088037E0
8.495489750E0,-2.589614868E0,-8.075407104E0,2.511776733E-1,8.484185010E0
8.505546750E0,-1.646875305E0,-1.246562759E1,-1.928739166E0,1.272101035E1
8.515604750E0,-5.204676819E-1,-1.501033585E1,-6.683451691E0,1.643926991E1
8.525662750E0,2.499801636E-1,-1.719698868E1,-9.770332489E0,1.978025042E1
8.535719750E0,-6.664141846E-1,-1.865540588E1,-7.052135010E0,1.995497143E1
8.545777750E0,-1.931134186E0,-1.745804581E1,-3.410657501E0,1.789260258E1
8.555834750E0,-2.010169830E0,-1.470616837E1,-1.343156891E0,1.490356471E1
8.565892750E0,-1.916464691E0,-1.223121506E1,-4.758604431E-1,1.238958845E1
8.575950750E0,-2.006277924E0,-1.014350647E1,-2.514770508E-1,1.034307088E1
8.586007750E0,-1.905836792E0,-8.403375092E0,-5.977070618E-1,8.637486934E0
8.596065750E0,-1.641037445E0,-7.122339020E0,-1.151555328E0,7.399107830E0
8.606123750E0,-1.379980316E0,-6.235283661E0,-1.208586731E0,6.499522282E0
8.616180750E0,-1.152752838E0,-6.029611359E0,-7.453001404E-1,6.183892346E0
8.626238750E0,-9.223818970E-1,-6.356082458E0,-2.625540161E-1,6.428025140E0
8.636295750E0,-6.378236389E-1,-6.918612671E0,1.505868530E-1,6.949582483E0
8.646353750E0,-2.049238586E-1,-7.538773041E0,4.513114929E-1,7.555049623E0
8.656411750E0,3.872447205E-1,-8.142168274E0,3.716770935E-1,8.159841085E0
8.666468750E0,9.274713135E-1,-8.627459106E0,-4.089495850E-1,8.686799954E0
8.676526750E0,1.271006927E0,-8.753347321E0,-1.297651520E0,8.939823678E0
8.686584750E0,1.318158875E0,-8.498876495E0,-1.984573059E0,8.826492776E0
8.696641750E0,1.172511749E0,-7.949369202E0,-2.589165802E0,8.442217366E0
8.706699750E0,9.395960999E-1,-7.213200073E0,-3.122357025E0,7.915946533E0
8.716756750E0,3.770658875E-1,-6.699468384E0,-3.279380493E0,7.468560218E0
8.726814750E0,-5.105882263E-1,-6.552024994E0,-3.046913910E0,7.243853687E0
8.736872750E0,-1.369951172E0,-6.516848145E0,-2.751128998E0,7.205191650E0
8.746929750E0,-2.221380615E0,-6.741081848E0,-2.602039032E0,7.559584873E0
8.756987750E0,-3.010689240E0,-7.343279572E0,-2.848875732E0,8.432324561E0
8.767045750E0,-3.697610779E0,-8.170459442E0,-3.268902283E0,9.545389206E0
8.777102750E0,-4.271816711E0,-9.149423676E0,-3.206781464E0,1.059451835E1
8.787160750E0,-4.516408081E0,-1.007405090E1,-2.890040131E0,1.141213282E1
8.797217750E0,-4.393962708E0,-1.069510941E1,-2.822530518E0,1.190205663E1
8.807275750E0,-3.856280823E0,-1.076127182E1,-2.856659546E0,1.178288491E1
8.817333750E0,-2.979104919E0,-1.045845154E1,-2.638563080E0,1.119000848E1
8.827390750E0,-2.030527496E0,-1.016356476E1,-2.268083496E0,1.060967922E1
8.837448750E0,-1.157991943E0,-9.700427856E0,-2.278561707E0,1.003150484E1
8.847506750E0,-2.537223816E-1,-9.225166168E0,-2.747985535E0,9.629096031E0
8.857563750E0,7.575746155E-1,-9.130113831E0,-3.547472992E0,9.824330129E0
8.867621750E0,1.211430817E0,-9.864187317E0,-3.710783386E0,1.060847159E1
8.877678750E0,9.554631042E-1,-1.058957886E1,-3.118465118E0,1.108047449E1
8.887736750E0,8.255332947E-1,-1.075947556E1,-2.552342377E0,1.108883542E1
8.897794750E0,1.006207581E0,-1.066157913E1,-2.369123383E0,1.096788352E1
8.907851750E0,1.380130005E0,-1.050575317E1,-2.699935455E0,1.093459007E1
8.917909750E0,1.886676636E0,-1.025098297E1,-3.399430847E0,1.096349993E1
8.927967750E0,2.184856567E0,-1.001043320E1,-4.002526703E0,1.100011777E1
8.938024750E0,2.239792328E0,-9.991722107E0,-4.087549896E0,1.102539090E1
8.948082750E0,2.123184814E0,-1.017419266E1,-3.835923157E0,1.107864687E1
8.958139750E0,1.738933868E0,-1.047132477E1,-3.575614471E0,1.120078355E1
8.968197750E0,1.233285370E0,-1.077773758E1,-3.699257355E0,1.146146261E1
8.978255750E0,7.349716187E-1,-1.114387619E1,-4.198918304E0,1.193134840E1
8.988312750E0,4.816983032E-1,-1.138517441E1,-4.637655945E0,1.230292982E1
8.998370542E0,3.993695068E-1,-1.136242172E1,-5.050497437E0,1.244072537E1
9.008428542E0,3.903881836E-1,-1.106109833E1,-5.750591583E0,1.247275442E1
9.018485542E0,5.432203674E-1,-1.058688446E1,-6.753805389E0,1.256945099E1
9.028543542E0,7.527845764E-1,-1.001372635E1,-7.499853973E0,1.253352343E1
9.038600542E0,9.762698364E-1,-9.405391388E0,-7.724985809E0,1.221023733E1
9.048658542E0,1.144969025E0,-8.744066620E0,-7.301965485E0,1.144938230E1
9.058716542E0,1.195114746E0,-7.956254883E0,-6.077960815E0,1.008324842E1
9.068773542E0,1.207987976E0,-6.934629364E0,-5.229824524E0,8.769229380E0
9.078831542E0,1.422791290E0,-5.719456329E0,-7.117698669E0,9.241111952E0
9.088889542E0,5.313949585E-1,-4.775668945E0,-8.717122650E0,9.953774248E0
9.098946542E0,-1.914219360E0,-4.000880127E0,-5.196294250E0,6.831745859E0
9.109004542E0,-3.924538879E0,-3.700155487E0,1.456471252E-1,5.395773265E0
9.119061542E0,-3.948489075E0,-4.226910095E0,4.414769440E0,7.276504939E0
9.129119542E0,-2.801723785E0,-4.096980286E0,5.771697693E0,7.612318825E0
9.139177542E0,-2.154170380E0,-3.588188324E0,5.776188354E0,7.133014607E0
9.149234542E0,-2.600991211E0,-3.195405121E0,5.221142578E0,6.651022402E0
9.159292542E0,-3.217409363E0,-3.144061890E0,4.812342682E0,6.587525352E0
9.169350542E0,-3.311114502E0,-3.453917542E0,3.516637115E0,5.937993115E0
9.179407542E0,-3.253783722E0,-3.881129150E0,-2.909948730E0,5.841067848E0
9.189465542E0,-2.772235107E0,-7.338339844E0,-2.251243515E1,2.384001375E1
9.199522542E0,-2.401905212E0,-1.324370956E1,-1.233390152E1,1.825623505E1
9.209580542E0,-2.411934357E0,-1.595876358E1,1.745520172E0,1.623411233E1
9.219638542E0,-2.308200073E-1,-1.728500565E1,1.835183716E0,1.738368768E1
9.229695542E0,3.464695129E0,-1.856619141E1,-3.664230194E0,1.923887103E1
9.239753542E0,5.638774109E0,-1.883383484E1,-7.189249878E0,2.093309394E1
9.249810542E0,3.428171082E0,-1.809197754E1,-6.347101135E0,1.947710710E1
9.259868542E0,1.564696198E0,-1.826052704E1,-5.872887268E0,1.924541314E1
9.269926542E0,5.619314575E-1,-1.870480316E1,-4.130809937E0,1.916374230E1
9.279983542E0,-1.242266693E0,-1.960308517E1,-3.285517731E0,1.991529065E1
9.290041542E0,-3.432512054E0,-2.222937378E1,-5.034929810E0,2.304946238E1
9.300099542E0,-5.112318878E0,-2.380065628E1,-5.153782654E0,2.488309706E1
9.310156542E0,-5.757776642E0,-2.400722672E1,-3.486399994E0,2.493298842E1
9.320214542E0,-5.697601776E0,-2.374691803E1,-2.640209656E0,2.456317343E1
9.330272542E0,-5.149741058E0,-2.251123764E1,-1.125509491E0,2.312017354E1
9.340329542E0,-4.654421082E0,-2.213192642E1,3.119512939E-1,2.261820321E1
9.350387542E0,-4.192332001E0,-2.226050903E1,1.590891724E0,2.270763851E1
9.360444542E0,-3.824247437E0,-2.274445267E1,2.565514984E0,2.320596610E1
9.370502542E0,-3.801644440E0,-2.372805725E1,2.557431793E0,2.416637455E1
9.380560542E0,-3.889960785E0,-2.408012512E1,1.554517365E0,2.444178277E1
9.390617542E0,-3.838018799E0,-2.220257950E1,-8.256829834E-1,2.254698820E1
9.400675542E0,-3.820654907E0,-1.882635040E1,-6.366560669E0,2.023763742E1
9.410732542E0,-3.250789948E0,-1.513802032E1,-9.932894440E0,1.839537134E1
9.420790542E0,-1.357976074E0,-1.241293716E1,-6.370153198E0,1.401798701E1
9.430848542E0,1.827699280E-1,-1.029648834E1,-3.422333221E0,1.085188655E1
9.440905542E0,9.331594849E-1,-7.881709900E0,-3.580105133E0,8.706853067E0
9.450963542E0,1.442999268E0,-4.390070801E0,-6.859335938E0,8.270759217E0
9.461021542E0,1.957030334E0,-1.011746063E0,-1.087997498E1,1.110078616E1
9.471078542E0,3.271446991E0,1.423689423E0,-1.430275726E1,1.474103532E1
9.481136542E0,4.349654846E0,2.060764618E0,-1.360640533E1,1.443261980E1
9.491193542E0,3.901486816E0,1.037791901E0,-8.533604279E0,9.440392650E0
9.501251542E0,3.293600922E0,4.713697815E-1,-5.068011017E0,6.062568117E0
9.511309542E0,3.549418945E0,5.498066711E-1,-4.626878357E0,5.857359948E0
9.521366542E0,2.660866699E0,-1.662442932E0,-5.519921265E0,6.349288059E0
9.531424542E0,-1.694476318E-1,-4.465962982E0,-3.486100616E0,5.668018646E0
9.541482542E0,-1.281185760E0,-4.099524994E0,-1.278940430E0,4.481431775E0
9.551539542E0,-2.482587433E0,-3.284170532E0,-2.183509369E0,4.660121201E0
9.561597542E0,-4.695136414E0,-2.532882843E0,-4.869224396E0,7.222821309E0
9.571654542E0,-5.576353912E0,-9.171427917E-1,-3.837120667E0,6.830839543E0
9.581712542E0,-4.935087433E0,5.207670593E-1,-2.021546173E0,5.358445225E0
9.591770542E0,-3.224893799E0,8.795709229E-1,6.646179199E-2,3.343351940E0
9.601827542E0,-1.293759613E0,8.976832581E-1,2.402953033E0,2.872948390E0
9.611885542E0,-2.799179077E-2,7.518864441E-1,4.055516510E0,4.124721921E0
9.621943542E0,7.749385071E-1,1.168170776E0,4.665198669E0,4.871265880E0
9.632000542E0,1.014440460E0,1.524729309E0,4.475992126E0,4.836154922E0
9.642058542E0,1.101409607E0,1.622326355E0,4.035757599E0,4.486912671E0
9.652115542E0,1.326691132E0,1.511407013E0,3.758983154E0,4.263146124E0
9.662173542E0,1.581760712E0,1.364263000E0,3.519481201E0,4.092667640E0
9.672231542E0,1.563049622E0,1.324296112E0,3.338507538E0,3.916952501E0
9.682288542E0,1.387464752E0,1.322799225E0,3.167862396E0,3.702729856E0
9.692346542E0,1.137634277E0,1.382824402E0,3.090473328E0,3.571755936E0
9.702404542E0,8.978329468E-1,1.364412689E0,3.010539551E0,3.425065601E0
9.712461542E0,8.412506104E-1,1.157093811E0,2.890339508E0,3.225000953E0
9.722519542E0,7.942483521E-1,9.104067993E-1,2.614912262E0,2.880527230E0
9.732576542E0,6.343807983E-1,9.508227539E-1,2.274370422E0,2.545439790E0
9.742634542E0,4.152365112E-1,1.094523926E0,1.897753601E0,2.229769655E0
9.752692542E0,1.528321838E-1,9.906399536E-1,1.427281952E0,1.744092591E0
9.762749542E0,-4.595443726E-2,7.845185852E-1,9.068142700E-1,1.199955558E0
9.772807542E0,-1.225950623E-1,4.613406372E-1,3.597019958E-1,5.977041565E-1
9.782865542E0,-1.110690308E-1,4.340972900E-2,-3.890409851E-1,4.069073878E-1
9.792922542E0,-1.534309387E-1,-3.224295044E-1,-1.114731903E0,1.170525119E0
9.802980542E0,-5.460644531E-1,-1.423988800E0,-6.307733002E0,6.489485812E0
9.813037542E0,-5.826932831E0,-1.231863327E1,-4.030668182E1,4.254797847E1
9.823095542E0,-7.174730072E0,-1.752001694E1,-2.498334686E1,3.134637723E1
9.833153542E0,-7.419321442E0,-2.531954773E1,-4.486170959E0,2.676287649E1
9.843210542E0,-9.449100494E0,-3.745286636E1,-1.826382019E1,4.272668753E1
9.853268542E0,-3.379821625E0,-5.836033905E1,-4.250321411E1,7.227638327E1
9.863325542E0,-7.153623962E-1,-5.309878052E1,3.071163483E0,5.319233292E1
9.873383542E0,-3.248245239E-2,-4.614319473E1,2.201606735E1,5.112634054E1
9.883441542E0,4.809648285E0,-3.613306091E1,1.810470108E1,4.070025809E1
9.893498542E0,6.585555267E0,-2.412143921E1,1.183693497E1,2.766453320E1
9.903556542E0,7.144492950E0,-1.028855484E1,1.972897339E-1,1.252745239E1
9.913614542E0,3.531456299E0,-1.990859985E0,-9.429042206E0,1.026360288E1
9.923671542E0,1.635798340E0,-2.556383972E0,-1.211969696E1,1.249391811E1
9.933729542E0,1.128952332E0,-4.516857147E0,-1.329625031E1,1.408782467E1
9.943786542E0,1.769170990E0,-1.062400726E1,-5.546865234E0,1.211475176E1
9.953844542E0,2.151925049E0,-1.559172684E1,-1.715582428E0,1.583274930E1
9.963902542E0,1.532812500E0,-1.623284363E1,-5.190007324E0,1.711113387E1
9.973959542E0,1.110690308E-1,-1.506961258E1,-8.353229370E0,1.723026409E1
9.984017542E0,-5.306614838E0,-1.367915405E1,-7.088958435E0,1.629517562E1
9.994075375E0,-8.103997650E0,-1.151734955E1,-4.262236633E0,1.471362565E1
1.000413237E1,-8.531957703E0,-9.681267700E0,-2.359243927E0,1.311820409E1
1.001419037E1,-7.879614258E0,-8.693322144E0,-1.607058105E0,1.184250001E1
1.002424737E1,-6.571035461E0,-7.876021729E0,-1.671873322E0,1.039256396E1
1.003430537E1,-4.790937195E0,-7.266339569E0,-1.441053314E0,8.822097517E0
1.004436337E1,-2.912792816E0,-6.736591187E0,-7.581733704E-1,7.378404276E0
1.005442037E1,-1.432071991E0,-6.701863403E0,-1.290316772E-1,6.854374693E0
1.006447837E1,-6.465055847E-1,-6.899602203E0,3.013233948E-1,6.936373391E0
1.007453637E1,3.842509460E-1,-7.297325134E0,2.665956116E-1,7.312296228E0
1.008459337E1,1.489253082E0,-7.697443085E0,-5.493576050E-2,7.840377716E0
1.009465137E1,2.632874908E0,-7.925718384E0,-3.243754578E-1,8.357886193E0
1.010470838E1,3.745361481E0,-8.105045471E0,-5.040019226E-1,8.942791099E0
1.011476637E1,5.023852844E0,-8.162376251E0,-1.250649261E0,9.665795727E0
1.012482438E1,6.076014862E0,-8.473429413E0,-2.282303925E0,1.067360641E1
1.013488137E1,6.258934479E0,-9.206155701E0,-3.224744110E0,1.158993262E1
1.014493937E1,5.638474731E0,-9.755513306E0,-3.910917206E0,1.192718368E1
1.015499638E1,4.555626526E0,-9.875563660E0,-3.875740356E0,1.154564221E1
1.016505437E1,3.359613647E0,-9.710307312E0,-3.196752319E0,1.076086880E1
1.017511238E1,1.938468933E0,-9.328601074E0,-2.218087463E0,9.782656684E0
1.018516937E1,2.002835083E-1,-8.854237518E0,-1.388362885E0,8.964663240E0
1.019522737E1,-1.537452850E0,-8.425379333E0,-1.087638245E0,8.633292253E0
1.020528537E1,-3.169508972E0,-8.127049713E0,-1.355281677E0,8.827882679E0
1.021534237E1,-4.516108704E0,-7.931855621E0,-2.098336487E0,9.365499850E0
1.022540037E1,-5.485043793E0,-7.884853363E0,-3.119213562E0,1.009881732E1
1.023545737E1,-5.907165985E0,-8.078849945E0,-3.667223969E0,1.065884412E1
1.024551537E1,-5.639223175E0,-8.669371948E0,-3.497327271E0,1.091742397E1
1.025557337E1,-4.859045563E0,-9.220974884E0,-2.797831879E0,1.079187494E1
1.026563037E1,-4.053271179E0,-9.244176636E0,-2.202519836E0,1.033125852E1
1.027568837E1,-2.898273010E0,-9.032965851E0,-1.913470917E0,9.677594198E0
1.028574537E1,-1.657652893E0,-8.908125458E0,-1.683848419E0,9.216173706E0
1.029580337E1,-4.459226990E-1,-8.886719971E0,-1.651216278E0,9.049815141E0
1.030586137E1,5.956114197E-1,-9.031768341E0,-2.007774811E0,9.271394287E0
1.031591837E1,1.397942963E0,-9.284742279E0,-2.724933472E0,9.776806541E0
1.032597637E1,1.879491577E0,-9.426946564E0,-3.548221436E0,1.024644746E1
1.033603437E1,2.145787811E0,-9.335187378E0,-4.394860840E0,1.053873477E1
1.034609137E1,2.245181122E0,-9.057963867E0,-4.962779846E0,1.056961359E1
1.035614938E1,2.315834198E0,-8.799451447E0,-5.206622772E0,1.048343238E1
1.036620637E1,2.431693268E0,-8.686586151E0,-5.327571259E0,1.047630310E1
1.037626437E1,2.433190155E0,-8.648415527E0,-5.321434021E0,1.044189473E1
1.038632237E1,2.129621429E0,-8.604107666E0,-5.135969696E0,1.024422476E1
1.039637937E1,1.563199310E0,-8.516689453E0,-4.991819458E0,9.994791285E0
1.040643738E1,9.074130249E-1,-8.299191742E0,-4.963378601E0,9.712626272E0
1.041649537E1,2.817141724E-1,-8.011490021E0,-5.371579742E0,9.649725600E0
1.042655237E1,-3.251239014E-1,-7.724087677E0,-6.230942688E0,9.929344529E0
1.043661037E1,-7.283853149E-1,-7.442223816E0,-6.858737183E0,1.014689688E1
1.044666737E1,-5.619314575E-1,-6.967710571E0,-6.928043060E0,9.841876763E0
1.045672537E1,4.730163574E-1,-6.193221130E0,-6.838080139E0,9.237914940E0
1.046678337E1,2.406096497E0,-5.399870911E0,-7.596103821E0,9.625419443E0
1.047684037E1,4.429738312E0,-4.957840118E0,-6.589596863E0,9.360851829E0
1.048689837E1,5.457800446E0,-4.998854828E0,-3.100502472E0,8.024291300E0
1.049695637E1,5.101990356E0,-5.206024017E0,7.123686218E-1,7.323964822E0
1.050701337E1,2.855462036E0,-5.448070679E0,3.062930603E0,6.871439546E0
1.051707137E1,4.210743713E-1,-6.030659180E0,2.672991486E0,6.609919610E0
1.052712837E1,-1.086889801E0,-5.972579956E0,7.762857056E-1,6.120102962E0
1.053718637E1,-1.646875305E0,-5.403613129E0,1.405128021E0,5.821135445E0
1.054724437E1,-2.679278412E0,-5.176235962E0,2.092947693E0,6.192929968E0
1.055730137E1,-4.599934387E0,-5.594915314E0,-2.813998260E0,7.770525075E0
1.056735937E1,-6.616241455E0,-7.694299622E0,-1.250364853E1,1.610335754E1
1.057741637E1,-4.246369629E0,-1.194081894E1,-1.959425354E0,1.282396817E1
1.058747437E1,-3.293451233E0,-1.545685730E1,8.514294434E-1,1.582675553E1
1.059753237E1,-2.994073792E0,-1.899714523E1,-2.161804504E0,1.935276217E1
1.060758937E1,-2.695893860E0,-2.271002426E1,-2.013163605E0,2.295791527E1
1.061764737E1,-1.400188293E0,-2.651780594E1,-2.602637787E0,2.668198423E1
1.062770537E1,2.114053802E0,-2.830224518E1,-4.267475739E0,2.870013336E1
1.063776238E1,4.058061218E0,-2.435944427E1,-2.352957001E0,2.480699081E1
1.064782037E1,3.132984924E0,-2.180126404E1,-1.845811615E0,2.210243717E1
1.065787737E1,1.832938385E0,-2.128693359E1,-2.793790283E0,2.154758615E1
1.066793537E1,9.550140381E-1,-2.181219131E1,-2.995121613E0,2.203757008E1
1.067799337E1,-8.008346558E-2,-2.292797104E1,-1.578916626E0,2.298241169E1
1.068805037E1,-1.496737518E0,-2.383149216E1,5.477110291E-1,2.388472794E1
1.069810837E1,-2.815794525E0,-2.481000732E1,1.311273193E0,2.500369172E1
1.070816537E1,-3.876937866E0,-2.587444382E1,1.904639282E0,2.623252067E1
1.071822337E1,-4.354444885E0,-2.649580170E1,2.188748474E0,2.694029172E1
1.072828137E1,-4.496948547E0,-2.703572891E1,1.512005768E0,2.744884962E1
1.073833837E1,-4.025129700E0,-2.679937042E1,-1.721420288E-1,2.710050843E1
1.074839637E1,-3.060236206E0,-2.547567307E1,-2.637215881E0,2.579398905E1
1.075845337E1,-1.990111542E0,-2.280807037E1,-5.437293091E0,2.353152724E1
1.076851137E1,-1.062490540E0,-1.943782883E1,-6.367758179E0,2.048185587E1
1.077856937E1,-2.787203979E-1,-1.622341324E1,-5.064119110E0,1.699770939E1
1.078862637E1,2.589614868E-2,-1.349473755E1,-3.331322479E0,1.389986768E1
1.079868437E1,-9.460327148E-2,-1.105226669E1,-2.091750183E0,1.124886517E1
1.080874237E1,1.672023010E-1,-7.939040680E0,-3.199446716E0,8.561120418E0
1.081879937E1,7.506889343E-1,-3.960763550E0,-6.888076172E0,7.981025944E0
1.082885737E1,1.171164551E0,-5.484594727E-1,-1.138068375E1,1.145392495E1
1.083891437E1,1.531465302E0,1.829046478E0,-1.599528763E1,1.617219909E1
1.084897237E1,2.093696136E0,3.112926636E0,-1.606983261E1,1.650192098E1
1.085903037E1,2.065554657E0,2.562072144E0,-9.925559692E0,1.045693382E1
1.086908738E1,1.519789581E0,1.484612732E0,-5.294789429E0,5.705140702E0
1.087914537E1,9.511221313E-1,9.909393311E-1,-3.057691498E0,3.352024964E0
1.088920338E1,7.741900635E-1,3.730242920E-1,-2.264191589E0,2.421792916E0
1.089926037E1,1.189276886E0,-1.406774597E0,-1.451830902E0,2.345465252E0
1.090931837E1,9.268725586E-1,-1.907483368E0,-3.835025024E-1,2.155147259E0
1.091937538E1,1.821711731E-1,-1.654060364E0,5.852828979E-1,1.763989256E0
1.092943337E1,-2.409988403E-1,-1.280137939E0,9.366023254E-1,1.604386955E0
1.093949138E1,-4.891827393E-1,-1.046773224E0,6.897656250E-1,1.345663610E0
1.094954837E1,-9.229806519E-1,-9.563612366E-1,5.370831299E-1,1.433519580E0
1.095960637E1,-1.503174133E0,-7.457492065E-1,3.736230469E-1,1.719089449E0
1.096966337E1,-1.953437805E0,-5.019062805E-1,2.821632385E-1,2.036527747E0
1.097972137E1,-2.156116333E0,-2.243833923E-1,4.230203247E-1,2.208649303E0
1.098977937E1,-2.182461548E0,6.376739502E-2,5.459147644E-1,2.250606056E0
1.099983637E1,-2.061662750E0,1.901046753E-1,5.996530151E-1,2.155499205E0
1.100989437E1,-2.218985596E0,1.718426514E-1,6.530918884E-1,2.319473213E0
1.101995237E1,-2.352807312E0,2.586621094E-1,6.643185425E-1,2.458440046E0
1.103000937E1,-1.776805115E0,4.233197021E-1,7.012916565E-1,1.956539285E0
1.104006737E1,-1.107846222E0,5.424719238E-1,6.143225098E-1,1.378038891E0
1.105012437E1,-7.545808411E-1,5.418731689E-1,7.381150818E-1,1.186521239E0
1.106018237E1,-4.604425049E-1,4.441264343E-1,8.473878479E-1,1.061754093E0
1.107024037E1,-2.535726929E-1,3.858975220E-1,1.003213806E0,1.104379441E0
1.108029737E1,-1.323248291E-1,3.556604004E-1,1.259780273E0,1.315693930E0
1.109035537E1,4.535568237E-2,3.577560425E-1,1.443448334E0,1.487813703E0
1.110041238E1,1.950444031E-1,3.805087280E-1,1.657802582E0,1.712056837E0
1.111047037E1,3.162922668E-1,4.117936707E-1,1.844165039E0,1.915870433E0
1.112052838E1,3.983216858E-1,4.369413757E-1,2.009271698E0,2.094457134E0
1.113058537E1,4.743635559E-1,4.020639038E-1,2.055824890E0,2.147811012E0
1.114064337E1,4.546046448E-1,1.966909790E-1,1.937720490E0,2.000028355E0
1.115070137E1,3.912863159E-1,2.769241333E-2,1.697919159E0,1.742642052E0
1.116075837E1,4.179309082E-1,-1.296304321E-1,1.280587006E0,1.353282444E0
1.117081638E1,4.568499756E-1,-2.399510193E-1,7.255412292E-1,8.903361540E-1
1.118087337E1,3.896397400E-1,-3.106040955E-1,2.415975952E-1,5.537720010E-1
1.119093137E1,3.197351074E-1,-3.568579102E-1,-1.136137390E-1,4.924288666E-1
1.120098937E1,3.230282593E-1,-3.945794678E-1,-5.842350769E-1,7.754810364E-1
1.121104637E1,7.062313843E-1,-1.267863464E0,-5.474415894E0,5.663520982E0
1.122110437E1,1.189426575E0,-9.415121155E0,-3.207784378E1,3.345216441E1
1.123116137E1,-7.608677673E-1,-1.079315552E1,-1.503234009E1,1.852140314E1
1.124121937E1,-1.860181732E0,-2.031515442E1,-6.028264160E0,2.127218240E1
1.125127737E1,-2.289938049E0,-2.154439819E1,5.616171112E0,2.238182941E1
1.126133437E1,-7.313042450E0,-4.200100845E1,-3.422153595E1,5.466881034E1
1.127139237E1,-5.020410004E0,-6.558431671E1,-3.856804733E1,7.624959928E1
1.128145037E1,-3.629951477E-1,-6.485174011E1,2.562820587E0,6.490337441E1
1.129150737E1,2.929108887E0,-5.465554321E1,1.031220566E1,5.569694487E1
1.130156537E1,3.296295319E0,-3.455354553E1,1.479074249E1,3.773034767E1
1.131162237E1,1.585802307E0,-2.220422607E1,1.354413483E1,2.605736005E1
1.132168037E1,6.069877625E-1,-1.428150146E1,1.114986374E1,1.812868389E1
1.133173837E1,-2.823129272E-1,-6.349795532E0,8.529113617E0,1.063698185E1
1.134179537E1,-2.503094788E0,4.574786682E0,-1.403481445E0,5.400362661E0
1.135185337E1,-4.854405212E0,8.328231354E0,-1.502590347E1,1.785223971E1
1.136191037E1,-1.854792938E0,6.968908081E0,-2.251752457E1,2.364412928E1
1.137196837E1,2.328707428E0,-5.708379364E0,-1.155566986E1,1.309740353E1
1.138202637E1,-9.475296021E-1,-1.590966568E1,-1.324296112E0,1.599278070E1
1.139208337E1,-3.443439331E0,-2.114053802E1,6.951544189E-1,2.143041908E1
1.140214138E1,-4.371359711E0,-2.319561447E1,4.692741394E-1,2.360859027E1
1.141219937E1,-3.314707031E0,-2.187521027E1,-1.953138428E0,2.221096253E1
1.142225637E1,-1.268312531E0,-1.847607880E1,-4.759053497E0,1.912126289E1
1.143231437E1,-1.677411804E0,-1.463297058E1,-5.943390656E0,1.588274003E1
1.144237137E1,-2.476450195E0,-1.103235809E1,-5.231321411E0,1.245842905E1
1.145242938E1,-2.783012695E0,-7.840695190E0,-3.059038696E0,8.864501028E0
1.146248737E1,-3.262315979E0,-5.593418427E0,-1.168619843E0,6.579871395E0
1.147254437E1,-3.823648682E0,-4.653522949E0,-2.290237427E-2,6.022963523E0
1.148260237E1,-4.333039398E0,-4.771627350E0,1.953437805E-1,6.448396482E0
1.149265937E1,-4.400399323E0,-5.311704254E0,2.233355713E-1,6.901274886E0
1.150271737E1,-3.890858917E0,-5.933810577E0,6.129753113E-1,7.122122564E0
1.151277537E1,-3.150947571E0,-6.405779114E0,8.876541138E-1,7.193775537E0
1.152283237E1,-2.240391083E0,-6.833140411E0,7.725434875E-1,7.232425840E0
1.153289037E1,-1.380878448E0,-7.411837006E0,7.310797119E-1,7.574736341E0
1.154294837E1,-2.495310974E-1,-8.204887848E0,9.110055542E-1,8.259078731E0
1.155300537E1,1.327289886E0,-9.088799744E0,9.728269958E-1,9.236577915E0
1.156306337E1,2.626887360E0,-9.535321198E0,9.228309631E-1,9.933504141E0
1.157312037E1,3.434008942E0,-9.064550171E0,1.066382446E0,9.751700300E0
1.158317837E1,3.871100006E0,-8.361162872E0,9.235794067E-1,9.259992373E0
1.159323637E1,3.874542847E0,-7.524402924E0,-1.359173584E-1,8.464466620E0
1.160329337E1,3.909420319E0,-6.485413513E0,-2.138153687E0,7.868662965E0
1.161335137E1,3.720662842E0,-5.479505310E0,-4.848118286E0,8.208079029E0
1.162340837E1,2.245330811E0,-5.331612854E0,-6.532415771E0,8.725827289E0
1.163346638E1,3.832031250E-1,-6.345604248E0,-6.719077606E0,9.249840095E0
1.164352437E1,-1.116677856E0,-8.069269867E0,-4.999154205E0,9.557804580E0
1.165358137E1,-2.737507324E0,-1.004216721E1,-2.632874908E0,1.073643790E1
1.166363937E1,-4.339026947E0,-1.204155945E1,-1.170715485E0,1.285289398E1
1.167369637E1,-5.465284882E0,-1.368499191E1,-4.885839844E-1,1.474405157E1
1.168375438E1,-5.879473572E0,-1.462713272E1,-5.685177612E-1,1.577480376E1
1.169381237E1,-5.498665466E0,-1.436457870E1,-1.096170502E0,1.542005295E1
1.170386937E1,-3.894002380E0,-1.225651245E1,-1.542542267E0,1.295240474E1
1.171392737E1,-2.504441986E0,-1.005713608E1,-1.732946320E0,1.050815487E1
1.172398537E1,-1.699565735E0,-8.762029266E0,-2.097138977E0,9.168406210E0
1.173404237E1,-7.408094788E-1,-7.831863556E0,-2.554887085E0,8.271295755E0
1.174410037E1,-1.269360352E-1,-7.331304474E0,-2.442321167E0,7.728458496E0
1.175415737E1,-6.900650024E-2,-7.017407227E0,-2.013762360E0,7.300959178E0
1.176421537E1,-1.959425354E-1,-6.850204926E0,-1.769919434E0,7.077875091E0
1.177427337E1,-1.011895752E-1,-7.140151978E0,-2.038460999E0,7.426125022E0
1.178433037E1,2.525248718E-1,-7.785609741E0,-1.969454498E0,8.034814178E0
1.179438837E1,4.328997803E-1,-8.239615631E0,-1.335373077E0,8.358342493E0
1.180444537E1,4.888833618E-1,-8.583899689E0,-5.020559692E-1,8.612456154E0
1.181450337E1,6.655160522E-1,-8.905131683E0,2.778222656E-1,8.934286044E0
1.182456137E1,1.230890350E0,-9.119336243E0,4.011657715E-1,9.210771875E0
1.183461837E1,2.433639221E0,-9.354048157E0,-9.021739197E-1,9.707457677E0
1.184467637E1,4.370162201E0,-1.030576904E1,-4.276606750E0,1.198317815E1
1.185473437E1,5.133424988E0,-1.177900543E1,-6.748266907E0,1.451330863E1
1.186479137E1,2.464924164E0,-1.281080978E1,-5.673950958E0,1.422625804E1
1.187484937E1,-9.201365662E-1,-1.233854187E1,-5.077142029E0,1.337399110E1
1.188490637E1,-1.846110992E0,-1.048045578E1,-6.119574280E0,1.227588158E1
1.189496437E1,-1.198407898E0,-9.111552429E0,-7.172634430E0,1.165775509E1
1.190502237E1,5.688171387E-3,-8.358468475E0,-6.905739441E0,1.084219834E1
1.191507938E1,1.126856689E0,-7.893086243E0,-6.017486572E0,9.989032039E0
1.192513737E1,1.653910675E0,-7.442523193E0,-5.746849365E0,9.547400150E0
1.193519437E1,1.634301453E0,-7.006929016E0,-6.140830078E0,9.459270031E0
1.194525237E1,1.189875641E0,-6.598278809E0,-6.895710297E0,9.617895184E0
1.195531037E1,7.207511902E-1,-6.281537476E0,-7.944728851E0,1.015361570E1
1.196536737E1,4.595443726E-1,-5.894292755E0,-8.933422852E0,1.071260528E1
1.197542537E1,4.718188477E-1,-5.516927490E0,-9.429790649E0,1.093526651E1
1.198548337E1,6.339317322E-1,-5.368735657E0,-8.691376190E0,1.023548788E1
1.199554037E1,5.950126648E-1,-5.426515503E0,-6.740333405E0,8.673707684E0
1.200559862E1,3.550616455E-1,-5.279970245E0,-3.323688354E0,6.249084640E0
1.201565563E1,1.960922241E-1,-4.780908051E0,1.504221954E0,5.015796810E0
1.202571362E1,3.360511780E-1,-4.446054382E0,5.256918182E0,6.893150132E0
1.203577163E1,5.538482666E-2,-4.406087494E0,5.444029083E0,7.003865157E0
1.204582862E1,-9.178912354E-1,-4.597689056E0,3.528911591E0,5.868090490E0
1.205588662E1,-2.118993530E0,-4.701273651E0,1.454674988E0,5.358002132E0
1.206594362E1,-4.198918304E0,-4.772824860E0,-2.081721039E0,6.689120611E0
1.207600162E1,-8.481362915E0,-5.740412750E0,-8.084687805E0,1.304791295E1
1.208605962E1,-8.125552826E0,-8.925639038E0,-3.763024750E0,1.264325892E1
1.209611662E1,-5.439239044E0,-1.339549393E1,1.070274353E0,1.449724340E1
1.210617462E1,-4.325105896E0,-1.824795319E1,2.077679443E-1,1.875466619E1
1.211623162E1,-3.113525391E0,-2.429373093E1,-1.922152863E0,2.456774459E1
1.212628962E1,-1.958676910E0,-2.878349442E1,-1.256936188E0,2.887742812E1
1.213634762E1,-2.544708252E-3,-3.081402191E1,-1.639989624E0,3.085763307E1
1.214640462E1,3.803740082E0,-2.837334732E1,-2.464325409E0,2.873305025E1
1.215646262E1,5.601351929E0,-2.433818848E1,-1.987866211E0,2.505342639E1
1.216651962E1,4.395160217E0,-2.394884811E1,-2.110461273E0,2.444010651E1
1.217657762E1,2.164049835E0,-2.484982452E1,-2.303110657E0,2.504997424E1
1.218663562E1,-4.748126221E-1,-2.570784027E1,-8.921447754E-1,2.572769754E1
1.219669263E1,-2.737956390E0,-2.630734360E1,1.440005493E0,2.648860789E1
1.220675062E1,-3.946243744E0,-2.637290726E1,3.028053131E0,2.683788707E1
1.221680863E1,-4.549339600E0,-2.676928299E1,3.717968445E0,2.740646442E1
1.222686562E1,-4.530179443E0,-2.731684433E1,3.597469025E0,2.792264839E1
1.223692362E1,-4.180656281E0,-2.757864990E1,2.782114563E0,2.803212405E1
1.224698063E1,-3.846850433E0,-2.708677277E1,8.655001831E-1,2.737225982E1
1.225703862E1,-3.617078247E0,-2.490281433E1,-3.841162262E0,2.545560732E1
1.226709663E1,-1.871408386E0,-2.168286026E1,-8.979676666E0,2.354321965E1
1.227715362E1,9.189390564E-1,-1.858235779E1,-7.975864105E0,2.024260058E1
1.228721162E1,2.151326294E0,-1.543844559E1,-5.459297333E0,1.651598421E1
1.229726862E1,2.423610077E0,-1.189681046E1,-6.238576813E0,1.365019507E1
1.230732662E1,2.836002502E0,-8.121960297E0,-1.151480484E1,1.437358270E1
1.231738462E1,3.404969330E0,-4.767885132E0,-1.537991730E1,1.645808011E1
1.232744162E1,3.020119629E0,-2.739004211E0,-1.383857254E1,1.442668904E1
1.233749962E1,2.677931213E0,-2.545456696E0,-7.235653381E0,8.124367374E0
1.234755662E1,1.683848419E0,-2.994073792E0,-2.542911987E0,4.273900413E0
1.235761462E1,6.887178040E-1,-2.513273621E0,-3.043171692E-1,2.623639732E0
1.236767262E1,5.656736755E-1,-1.253193970E0,-2.100132751E-1,1.390894464E0
1.237772962E1,4.312532043E-1,9.729766846E-2,-2.241289215E0,2.284474449E0
1.238778762E1,-5.173242188E-1,1.250798950E0,-6.335575104E0,6.478551864E0
1.239784562E1,-1.813628540E0,9.144483948E-1,-6.816375275E0,7.112554832E0
1.240790262E1,-2.116598511E0,3.249742126E-1,-3.445834351E0,4.057015142E0
1.241796062E1,-1.880988464E0,4.293072510E-1,-5.782475281E-1,2.014148089E0
1.242801762E1,-1.611548767E0,1.249152374E0,1.459614716E0,2.507577756E0
1.243807562E1,-1.375489655E0,1.334175568E0,1.500030670E0,2.433534106E0
1.244813362E1,-1.224902802E0,7.635621643E-1,1.017583923E0,1.766038248E0
1.245819062E1,-1.040785675E0,4.743635559E-1,7.780819702E-1,1.383353591E0
1.246824862E1,-8.427474976E-1,4.090992737E-1,8.059240723E-1,1.235758541E0
1.247830563E1,-6.800358582E-1,4.776567078E-1,1.001866608E0,1.301668698E0
1.248836362E1,-6.396199036E-1,6.373745728E-1,1.303788757E0,1.585946118E0
1.249842163E1,-6.899153137E-1,8.440946960E-1,1.576371918E0,1.916618746E0
1.250847862E1,-6.526428223E-1,9.671388245E-1,1.863624573E0,2.198726156E0
1.251853662E1,-4.249662781E-1,1.031504974E0,2.124382324E0,2.399499762E0
1.252859363E1,-2.218386841E-1,1.082399139E0,2.468217316E0,2.704236864E0
1.253865162E1,-1.854643250E-1,1.093176727E0,2.858605499E0,3.066114442E0
1.254870962E1,-3.902384949E-1,1.096769257E0,3.188519440E0,3.394384348E0
1.255876662E1,-6.194119263E-1,1.122665405E0,3.304228821E0,3.544287918E0
1.256882462E1,-6.807843018E-1,1.160386963E0,3.079995117E0,3.361002096E0
1.257888262E1,-6.444099426E-1,1.164877625E0,2.673440552E0,2.986551262E0
1.258893962E1,-6.182144165E-1,1.170416107E0,2.277064819E0,2.633835059E0
1.259899762E1,-6.120771790E-1,1.080004120E0,1.829944611E0,2.211276701E0
1.260905462E1,-5.203179932E-1,1.041384430E0,1.284927979E0,1.733854739E0
1.261911262E1,-3.056643677E-1,1.003513184E0,8.622070313E-1,1.357891888E0
1.262917062E1,-1.085243225E-1,9.395960999E-1,6.969506836E-1,1.174886639E0
1.263922762E1,5.658233643E-2,8.238867188E-1,7.397616577E-1,1.108710150E0
1.264928562E1,1.939965820E-1,7.164102173E-1,7.774832153E-1,1.074876004E0
1.265934262E1,2.558180237E-1,6.503974915E-1,7.644602966E-1,1.035789218E0
1.266940062E1,1.172062683E-1,5.382806396E-1,7.162605286E-1,9.036108129E-1
1.267945862E1,-1.914518738E-1,2.911445618E-1,5.766009521E-1,6.737118329E-1
1.268951562E1,-4.608915710E-1,5.074447632E-2,3.432362366E-1,5.768944065E-1
1.269957362E1,-4.150868225E-1,-8.816665649E-2,6.870712280E-2,4.298733514E-1
1.270963063E1,-3.855981445E-1,-1.338217163E-1,-3.179388428E-1,5.173773174E-1
1.271968862E1,-6.731501770E-1,-2.935395813E-1,-8.246351624E-1,1.104228146E0
1.272974663E1,-7.700137482E0,-8.436905365E0,-3.167398361E1,3.367068053E1
1.273980362E1,-1.110720245E1,-1.908351562E1,-4.187871277E1,4.734318428E1
1.274986162E1,-7.702382813E0,-2.307900696E1,-1.225756027E1,2.724362397E1
1.275991962E1,-5.720504150E0,-2.212234634E1,1.231878296E1,2.595909839E1
1.276997662E1,-1.039019348E1,-3.874003967E1,-1.168275558E1,4.177599278E1
1.278003463E1,-5.834566956E0,-5.376594315E1,-2.511791702E1,5.962993015E1
1.279009162E1,1.543590088E0,-5.187627274E1,-9.432934113E0,5.274950795E1
1.280014962E1,-8.448431396E-1,-4.052507767E1,4.536466370E0,4.078694898E1
1.281020762E1,-2.546803894E0,-3.512565582E1,2.773133240E0,3.532687610E1
1.282026462E1,-1.974244537E0,-2.922148361E1,1.837279358E0,2.934566989E1
1.283032262E1,-3.046315155E0,-2.294458649E1,2.082918549E0,2.323946288E1
1.284037962E1,-4.209546204E0,-1.796788559E1,1.308279419E0,1.850072395E1
1.285043762E1,-2.856958923E0,-1.109462860E1,-6.189628601E-1,1.147327822E1
1.286049562E1,-2.830613708E0,-4.724176025E0,-7.110214233E-1,5.552995998E0
1.287055262E1,-4.874762878E0,2.158511353E-1,-5.411846008E0,7.286836217E0
1.288061062E1,-4.743785248E0,6.439758453E0,-1.612506775E1,1.799977215E1
1.289066762E1,-2.290387115E0,2.697690125E0,-1.432640808E1,1.475701100E1
1.290072562E1,-1.324445801E0,-8.603359222E0,-5.235961761E0,1.015811214E1
1.291078362E1,-1.510508881E0,-1.558828400E1,-2.004331970E-1,1.566257988E1
1.292084062E1,-1.670526123E0,-2.059447357E1,-3.134481812E-1,2.066449247E1
1.293089862E1,-9.837542725E-1,-2.371428589E1,-3.536096649E0,2.399664783E1
1.294095562E1,1.346450043E0,-2.310430435E1,-5.807323608E0,2.386098939E1
1.295101362E1,3.688030701E0,-1.830004486E1,-5.510341187E0,1.946425114E1
1.296107162E1,4.604724426E0,-1.389186172E1,-4.027973785E0,1.517932416E1
1.297112862E1,4.734803925E0,-1.078567108E1,-2.376308441E0,1.201648496E1
1.298118662E1,3.904630280E0,-8.371341705E0,-8.086184692E-1,9.272505778E0
1.299124363E1,2.709964600E0,-6.928791504E0,4.839436340E-1,7.455619443E0
1.300130262E1,1.532962189E0,-5.943989410E0,1.044827271E0,6.226768601E0
1.301136062E1,3.820056152E-1,-5.309458923E0,8.758287048E-1,5.394752846E0
1.302141762E1,-5.742059326E-1,-5.236410828E0,3.276686096E-1,5.277980440E0
1.303147563E1,-1.316063232E0,-5.997128906E0,-2.460882568E-1,6.144765006E0
1.304153362E1,-1.542093201E0,-7.077881470E0,-6.644682312E-1,7.274336779E0
1.305159062E1,-1.657054138E0,-8.105195160E0,-8.978329468E-1,8.321425419E0
1.306164862E1,-1.713187408E0,-9.081464996E0,-8.174501038E-1,9.277728291E0
1.307170562E1,-1.409618683E0,-1.007225464E1,-6.541397095E-1,1.019142959E1
1.308176362E1,-7.767347717E-1,-1.055844360E1,-7.303312683E-1,1.061213607E1
1.309182162E1,-3.261717224E-1,-1.006776398E1,-9.915380859E-1,1.012172946E1
1.310187862E1,-1.598675537E-1,-9.230405273E0,-1.040037231E0,9.290189266E0
1.311193662E1,-2.483335876E-1,-8.390352173E0,-9.939331055E-1,8.452667163E0
1.312199362E1,-4.727169800E-1,-7.441924438E0,-1.018931122E0,7.526215604E0
1.313205162E1,-7.105723572E-1,-6.462361450E0,-1.325792999E0,6.635115347E0
1.314210962E1,-1.076710968E0,-5.527705078E0,-1.797611847E0,5.911534343E0
1.315216662E1,-1.500629425E0,-4.779411163E0,-2.244732056E0,5.489397211E0
1.316222462E1,-1.932930450E0,-4.244124298E0,-2.573448486E0,5.326485548E0
1.317228162E1,-2.425106964E0,-4.309238892E0,-2.618804169E0,5.595428392E0
1.318233962E1,-2.930905151E0,-4.935087433E0,-2.512674866E0,6.265686551E0
1.319239762E1,-3.206781464E0,-5.884113922E0,-2.383194122E0,7.112373600E0
1.320245462E1,-3.310665436E0,-6.987319794E0,-2.268382874E0,8.057834969E0
1.321251262E1,-3.475173340E0,-8.247998199E0,-2.109712830E0,9.195498478E0
1.322257062E1,-3.600013733E0,-9.736053772E0,-1.718875580E0,1.052166219E1
1.323262762E1,-3.359613647E0,-1.146959885E1,-1.163530426E0,1.200801835E1
1.324268562E1,-2.417173462E0,-1.315524353E1,-6.813830566E-1,1.339281310E1
1.325274262E1,-1.419647827E0,-1.443268707E1,-6.301895142E-1,1.451602545E1
1.326280063E1,-3.779640198E-1,-1.517873566E1,-1.195414124E0,1.523042638E1
1.327285862E1,5.198689270E-1,-1.514625320E1,-2.134411469E0,1.530473659E1
1.328291562E1,1.117276611E0,-1.445529007E1,-3.051703949E0,1.481609311E1
1.329297362E1,1.790875854E0,-1.334953949E1,-4.205504608E0,1.411041140E1
1.330303062E1,2.320025482E0,-1.204949295E1,-4.955594788E0,1.323369632E1
1.331308863E1,2.538121948E0,-1.056233551E1,-4.788242798E0,1.187148953E1
1.332314662E1,2.804268494E0,-8.946894836E0,-4.309238892E0,1.031893351E1
1.333320362E1,3.005001068E0,-7.311844940E0,-3.825145569E0,8.782075294E0
1.334326162E1,3.075354767E0,-5.974376221E0,-3.524121552E0,7.587516779E0
1.335331862E1,2.894381104E0,-5.155578918E0,-3.261866913E0,6.752570749E0
1.336337662E1,2.336640930E0,-5.146298218E0,-2.998564453E0,6.398098543E0
1.337343462E1,1.538949738E0,-5.742957458E0,-2.809357910E0,6.575896785E0
1.338349162E1,8.119116211E-1,-6.526727600E0,-2.733166351E0,7.122329110E0
1.339354962E1,2.971321106E-1,-7.416477356E0,-2.854863281E0,7.952525902E0
1.340360662E1,1.763333130E-1,-8.141569519E0,-3.484004974E0,8.857456651E0
1.341366462E1,5.701643372E-1,-8.524922333E0,-4.844974823E0,9.822075605E0
1.342372262E1,1.232237549E0,-8.641978912E0,-6.606212311E0,1.094733986E1
1.343377962E1,1.863624573E0,-8.732241211E0,-7.715405731E0,1.180053468E1
1.344383762E1,2.045496368E0,-8.391399994E0,-7.794291687E0,1.163402906E1
1.345389462E1,1.789229279E0,-7.405101013E0,-7.148384857E0,1.044683055E1
1.346395262E1,1.223405914E0,-6.280040588E0,-5.873785400E0,8.685446837E0
1.347401062E1,2.573149109E-1,-5.488786011E0,-5.152734833E0,7.532838714E0
1.348406762E1,-7.164102173E-1,-5.002597046E0,-5.657036133E0,7.585596787E0
1.349412563E1,-1.691931610E0,-4.600383453E0,-6.486161957E0,8.129972781E0
1.350418362E1,-2.580633545E0,-3.987108765E0,-5.909860382E0,7.581764671E0
1.351424062E1,-3.404520264E0,-3.730093231E0,-2.664010162E0,5.709755151E0
1.352429862E1,-4.364174652E0,-4.134252777E0,2.157313843E0,6.386866950E0
1.353435562E1,-5.028493195E0,-5.044958954E0,3.727698212E0,8.039470667E0
1.354441363E1,-6.759792938E0,-5.319338379E0,-1.608854370E0,8.750918451E0
1.355447162E1,-8.013286285E0,-5.795049133E0,-8.365354156E0,1.295277969E1
1.356452862E1,-5.215304718E0,-7.911048889E0,-3.171454926E0,9.992108095E0
1.357458662E1,-3.178340607E0,-1.026550278E1,2.489173737E0,1.103079245E1
1.358464362E1,-1.560205536E0,-1.166928360E1,3.985013123E0,1.242926992E1
1.359470162E1,3.815565491E-1,-1.287308029E1,2.993924103E0,1.322215425E1
1.360475962E1,3.452270966E0,-1.624182495E1,-2.996019745E0,1.687279428E1
1.361481662E1,8.056696014E0,-1.982297791E1,-1.101110229E1,2.406460424E1
1.362487462E1,8.058941345E0,-1.925446014E1,-7.815397797E0,2.228814065E1
1.363493162E1,5.035229187E0,-1.761641647E1,-1.393751678E0,1.837482533E1
1.364498962E1,3.262315979E0,-1.711735428E1,9.220825195E-2,1.742570014E1
1.365504762E1,3.401676178E0,-1.781729874E1,-1.655856628E0,1.821453805E1
1.366510462E1,3.924838257E0,-1.903426804E1,-3.988905029E0,1.983983564E1
1.367516262E1,2.157912598E0,-2.058908478E1,-3.372486877E0,2.097476261E1
1.368521962E1,1.275347900E-1,-2.181862793E1,-1.989063721E0,2.190947659E1
1.369527762E1,-1.004111938E0,-2.252830215E1,-2.828368378E0,2.272734711E1
1.370533562E1,-2.181862793E0,-2.346849701E1,-4.416116638E0,2.397984494E1
1.371539262E1,-2.736010437E0,-2.423879517E1,-4.051175537E0,2.472684710E1
1.372545062E1,-2.117945709E0,-2.509711029E1,-2.565664673E0,2.531666001E1
1.373550762E1,-7.128176880E-1,-2.571771973E1,-1.697470093E0,2.578353393E1
1.374556562E1,6.123765564E-1,-2.601889343E1,-1.603914642E0,2.607547435E1
1.375562362E1,1.796114960E0,-2.621303970E1,-2.765798492E0,2.641967299E1
1.376568062E1,3.081791382E0,-2.596006577E1,-3.752097473E0,2.641023832E1
1.377573863E1,3.657793579E0,-2.480042725E1,-3.645070038E0,2.533233469E1
1.378579562E1,3.882326660E0,-2.281570450E1,-4.394411774E0,2.355715787E1
1.379585362E1,3.819457397E0,-1.996982254E1,-5.382806396E0,2.103227690E1
1.380591162E1,3.258873138E0,-1.678519501E1,-6.163133698E0,1.817545715E1
1.381596862E1,2.589016113E0,-1.357003098E1,-5.941295013E0,1.503820905E1
1.382602662E1,2.064806213E0,-1.073702225E1,-4.969815216E0,1.201025123E1
1.383608362E1,1.677561493E0,-7.893235931E0,-4.735402679E0,9.356357441E0
1.384614162E1,1.417402496E0,-4.409680023E0,-7.301965485E0,8.647138699E0
1.385619962E1,1.553020477E0,-8.830137634E-1,-1.114342712E1,1.128572346E1
1.386625662E1,1.373992767E0,1.317410431E0,-1.373408981E1,1.386537592E1
1.387631462E1,2.145189056E0,1.917213135E0,-1.149280060E1,1.184744731E1
1.388637262E1,2.854414215E0,1.257534943E0,-5.895639954E0,6.669905929E0
1.389642962E1,2.354603577E0,3.183879089E-1,-1.880090332E0,3.029895794E0
1.390648762E1,1.989213409E0,1.176553345E-1,-1.309776306E-1,1.996989711E0
1.391654462E1,1.459764404E0,5.801934814E-1,-1.957928467E-1,1.582994451E0
1.392660262E1,6.828799438E-1,9.383985901E-1,-6.924600220E-1,1.351450263E0
1.393666062E1,8.187973022E-2,4.574487305E-1,-1.355281677E0,1.432742844E0
1.394671762E1,-3.656895447E-1,-1.348695374E-1,-1.544937286E0,1.593345491E0
1.395677562E1,-9.297166443E-1,-3.553610229E-1,-1.260528717E0,1.606109318E0
1.396683262E1,-1.298849030E0,-4.085005188E-1,-8.298742676E-1,1.594544692E0
1.397689062E1,-1.649569702E0,-5.128335571E-1,-7.433541870E-1,1.880599348E0
1.398694862E1,-2.369871826E0,-4.764591980E-1,-1.256038055E0,2.724139761E0
1.399700562E1,-3.070564728E0,-1.561253357E-1,-1.481020203E0,3.412647610E0
1.400706254E1,-2.693199463E0,1.619631958E-1,-3.492237854E-1,2.720572123E0
1.401711954E1,-1.814975739E0,3.489244080E-1,7.583230591E-1,1.997733475E0
1.402717754E1,-1.157393188E0,5.077441406E-1,1.419348450E0,1.900503388E0
1.403723554E1,-5.715115356E-1,5.809419250E-1,1.793719940E0,1.970165013E0
1.404729254E1,-1.091230774E-1,5.213658142E-1,1.666933594E0,1.749970790E0
1.405735054E1,2.336640930E-1,4.064048767E-1,1.614392853E0,1.681079449E0
1.406740754E1,4.706213379E-1,3.671864319E-1,1.642684021E0,1.747776048E0
1.407746554E1,6.333329773E-1,3.299139404E-1,1.763632507E0,1.902722652E0
1.408752354E1,9.386979675E-1,3.363505554E-1,1.849853210E0,2.101485777E0
1.409758054E1,1.026864624E0,2.894979858E-1,1.784738617E0,2.079315265E0
1.410763854E1,1.092877350E0,2.909948730E-1,1.670675812E0,2.017477778E0
1.411769554E1,1.131197662E0,3.234773254E-1,1.479673004E0,1.890417396E0
1.412775354E1,1.044078827E0,2.917433167E-1,1.285077667E0,1.681261244E0
1.413781154E1,9.377998352E-1,8.008346558E-2,9.756710815E-1,1.355660707E0
1.414786854E1,7.162605286E-1,-2.282752991E-1,7.113208008E-1,1.034947360E0
1.415792654E1,4.787045288E-1,-5.258564758E-1,5.095404053E-1,8.748225441E-1
1.416798454E1,3.242257690E-1,-6.376739502E-1,3.444337463E-1,7.939678971E-1
1.417804154E1,1.649569702E-1,-6.646179199E-1,1.402583313E-1,6.989994142E-1
1.418809954E1,8.307723999E-2,-6.367758179E-1,-7.110214233E-2,6.460965753E-1
1.419815654E1,4.445755005E-2,-5.327421570E-1,-3.378474426E-1,6.324014343E-1
1.420821454E1,1.841171265E-2,-5.586383057E-1,-1.540296936E0,1.638575723E0
1.421827254E1,-4.812492371E-1,-1.635648651E0,-7.779921570E0,7.964554411E0
1.422832954E1,-7.800279236E-1,-3.365451508E0,-1.098535583E1,1.151576095E1
1.423838754E1,-4.679269409E-1,-7.305408325E0,-1.965921844E1,2.097791258E1
1.424844454E1,7.297325134E-1,-1.141675873E1,-1.800485870E1,2.133189692E1
1.425850254E1,7.141648865E-1,-8.586594086E0,5.153034210E0,1.003959118E1
1.426856054E1,-1.601220245E0,-1.370055954E1,-4.265230408E0,1.443819339E1
1.427861754E1,-4.597239990E0,-2.935710159E1,-1.852682327E1,3.501738440E1
1.428867554E1,-6.026467896E-1,-4.178979767E1,-1.879012573E1,4.582378419E1
1.429873254E1,2.041005707E0,-5.447876083E1,-4.317322083E0,5.468766183E1
1.430879054E1,3.070265350E0,-5.391323685E1,1.483669693E1,5.600170723E1
1.431884854E1,3.348985748E0,-4.752227692E1,1.680255890E1,5.051641807E1
1.432890554E1,5.859115906E0,-3.364538406E1,1.443059143E1,3.707537022E1
1.433896354E1,7.395520935E0,-2.290417053E1,7.835007019E0,2.531169873E1
1.434902054E1,7.293582916E0,-1.615261047E1,2.517764282E0,1.790090260E1
1.435907854E1,4.997208252E0,-1.067475174E1,-2.047142944E0,1.196299332E1
1.436913654E1,4.367916870E-1,-6.254593506E0,-6.736441498E0,9.202737145E0
1.437919354E1,-3.920497284E0,-4.155658264E0,-7.013665009E0,9.046064968E0
1.438925154E1,-6.288123779E0,-6.451583862E0,-3.156036987E0,9.545889401E0
1.439930854E1,-4.999154205E0,-1.194545929E1,-2.130369873E0,1.312341481E1
1.440936654E1,-3.101250916E0,-1.577734085E1,-2.964136047E0,1.635017872E1
1.441942454E1,-2.892285461E0,-1.735640717E1,-1.834435272E0,1.769110900E1
1.442948154E1,-2.683619385E0,-1.714729202E1,-6.833290100E-1,1.736946675E1
1.443953954E1,-2.237247620E0,-1.554592209E1,-6.750961304E-1,1.572058285E1
1.444959654E1,-2.532733154E0,-1.366897522E1,-1.043031006E0,1.394071499E1
1.445965454E1,-2.927761688E0,-1.178065201E1,-1.391955414E0,1.221855516E1
1.446971254E1,-3.036286011E0,-1.020862106E1,-1.239871674E0,1.072251176E1
1.447976954E1,-3.082240448E0,-8.924740906E0,-9.542655945E-1,9.490091108E0
1.448982754E1,-2.993025970E0,-7.872429199E0,-9.102571106E-1,8.471240403E0
1.449988454E1,-2.661315765E0,-7.178322601E0,-7.985893250E-1,7.697315239E0
1.450994254E1,-2.322570190E0,-6.864575043E0,-7.818241882E-1,7.288893734E0
1.452000054E1,-1.866917725E0,-7.078180847E0,-1.195563812E0,7.417236596E0
1.453005754E1,-1.162033539E0,-7.466473389E0,-1.478774872E0,7.699696223E0
1.454011554E1,-2.793191528E-1,-7.730075226E0,-1.254541168E0,7.836195233E0
1.455017254E1,7.379653931E-1,-7.853119354E0,-8.898994446E-1,7.937757715E0
1.456023054E1,1.813029785E0,-7.737709351E0,-1.057101746E0,8.017274293E0
1.457028854E1,2.834954681E0,-7.344327393E0,-1.688339081E0,8.051496864E0
1.458034554E1,3.360362091E0,-7.118147736E0,-2.278112640E0,8.194501679E0
1.459040354E1,3.292104034E0,-6.936874695E0,-2.433639221E0,8.054860605E0
1.460046054E1,3.000061340E0,-6.933581543E0,-2.615660706E0,7.994785925E0
1.461051854E1,2.675685883E0,-7.179071045E0,-3.123105469E0,8.273581073E0
1.462057654E1,2.407443695E0,-7.756420441E0,-3.626508636E0,8.894346974E0
1.463063354E1,2.229164429E0,-8.550519104E0,-3.591481476E0,9.538306463E0
1.464069154E1,1.808090057E0,-9.349557495E0,-3.195854187E0,1.004474484E1
1.465074854E1,1.187480621E0,-1.003079086E1,-2.437082062E0,1.039068066E1
1.466080654E1,7.310797119E-1,-1.036818924E1,-1.798959045E0,1.054846336E1
1.467086454E1,4.427792358E-1,-1.027268784E1,-1.420695648E0,1.037991064E1
1.468092154E1,1.582209778E-1,-9.815089417E0,-1.515598297E0,9.932675990E0
1.469097954E1,-2.215393066E-1,-9.192833405E0,-2.098935242E0,9.432009055E0
1.470103654E1,-6.560856628E-1,-8.710087280E0,-2.697690125E0,9.141859813E0
1.471109454E1,-1.036295013E0,-8.522677002E0,-2.952909393E0,9.079075092E0
1.472115254E1,-1.322499847E0,-8.620723114E0,-2.955304413E0,9.208675096E0
1.473120954E1,-1.378333740E0,-8.714877319E0,-2.875220947E0,9.279859163E0
1.474126754E1,-1.111139374E0,-8.747210083E0,-2.860701141E0,9.269947463E0
1.475132554E1,-5.942642212E-1,-8.825347595E0,-2.904709625E0,9.310061662E0
1.476138254E1,1.267863464E-1,-8.938961334E0,-2.786754913E0,9.364139440E0
1.477144054E1,8.241860962E-1,-9.087302856E0,-2.380799103E0,9.430088032E0
1.478149754E1,1.370998993E0,-9.439670105E0,-1.787433014E0,9.704737333E0
1.479155554E1,1.707349548E0,-9.868677979E0,-1.553469543E0,1.013504391E1
1.480161254E1,1.944456482E0,-1.028765671E1,-2.192041626E0,1.069681439E1
1.481167054E1,2.021845551E0,-1.091155930E1,-3.064277802E0,1.151259242E1
1.482172854E1,1.693578186E0,-1.125988495E1,-3.414998474E0,1.188761670E1
1.483178554E1,1.068777466E0,-1.098056580E1,-3.313659210E0,1.151935102E1
1.484184354E1,2.375559998E-1,-1.038270905E1,-2.876268768E0,1.077636312E1
1.485190154E1,-3.613485718E-1,-9.686806183E0,-2.500101013E0,1.001075881E1
1.486195854E1,-7.123686218E-1,-9.010213165E0,-2.339485016E0,9.336198395E0
1.487201654E1,-9.012757874E-1,-8.501421204E0,-2.279459839E0,8.847734042E0
1.488207354E1,-8.863069153E-1,-8.336913300E0,-2.462529144E0,8.738061175E0
1.489213154E1,-5.999523926E-1,-8.755742340E0,-2.953508148E0,9.259923174E0
1.490218954E1,4.490661621E-2,-9.569599915E0,-3.418740692E0,1.016203951E1
1.491224654E1,8.309220886E-1,-1.025502457E1,-3.611988831E0,1.090423879E1
1.492230454E1,1.600771179E0,-1.068747528E1,-3.701652374E0,1.142308306E1
1.493236154E1,2.341131592E0,-1.073747131E1,-3.733835449E0,1.160670989E1
1.494241954E1,2.780917053E0,-1.040516235E1,-3.804338837E0,1.142251712E1
1.495247754E1,2.520308990E0,-9.874515839E0,-3.922143860E0,1.091976341E1
1.496253454E1,1.675016785E0,-9.415869598E0,-3.924089813E0,1.033744467E1
1.497259254E1,1.018931122E0,-9.086554413E0,-4.010310516E0,9.984301787E0
1.498264954E1,5.679190063E-1,-8.813821564E0,-4.373455353E0,9.855612324E0
1.499270754E1,2.493814087E-1,-8.549620972E0,-4.880151672E0,9.847542343E0
1.500276579E1,5.179229736E-2,-8.291258240E0,-5.188211060E0,9.780857817E0
1.501282279E1,5.164260864E-2,-7.951315155E0,-5.187761993E0,9.494153683E0
1.502288079E1,-1.438508606E-1,-7.472460938E0,-4.830904083E0,8.899213437E0
1.503293779E1,-6.948550415E-1,-6.910529480E0,-4.290677490E0,8.163832099E0
1.504299579E1,-1.497036896E0,-6.242917786E0,-3.793710938E0,7.457035914E0
1.505305379E1,-2.183808746E0,-5.448070679E0,-4.157155151E0,7.192526240E0
1.506311079E1,-2.484982452E0,-4.503684540E0,-5.902525635E0,7.829311661E0
1.507316879E1,-2.658321991E0,-3.725303192E0,-3.777843933E0,5.934363021E0
1.508322579E1,-2.772534485E0,-3.500321045E0,7.807763672E-1,4.533079155E0
1.509328379E1,-2.405198364E0,-4.425247650E0,-1.076261902E-1,5.037795086E0
1.510334179E1,-1.443448334E0,-6.651567993E0,1.889071655E0,7.063674085E0
1.511339879E1,-6.354286194E-1,-8.202193451E0,3.991300049E0,9.143862587E0
1.512345679E1,-1.155147858E0,-7.754474487E0,3.121009827E0,8.438420675E0
1.513351379E1,-2.350561981E0,-7.217391357E0,3.274291077E0,8.266611258E0
1.514357179E1,-3.644171906E0,-7.504793701E0,2.933000793E0,8.843325790E0
1.515362979E1,-4.798122253E0,-9.161398773E0,9.702822876E-1,1.038723507E1
1.516368679E1,-5.265749817E0,-1.281515076E1,8.357121277E-1,1.388000810E1
1.517374479E1,-5.085524597E0,-1.704340805E1,5.118007050E0,1.850768258E1
1.518380179E1,-5.167404327E0,-2.246468445E1,6.423891449E0,2.392969904E1
1.519385979E1,-4.306993561E0,-2.969180557E1,-8.801846466E0,3.126701158E1
1.520391779E1,-4.926255798E-1,-3.747861282E1,-2.395423691E1,4.448251977E1
1.521397479E1,1.412013702E0,-3.545616852E1,5.538482666E-3,3.548427397E1
1.522403279E1,5.521418152E0,-3.359718430E1,-1.155746613E0,3.406747131E1
1.523408979E1,9.495803375E0,-3.149226151E1,-3.857478333E0,3.311816655E1
1.524414779E1,8.588240662E0,-3.099080429E1,3.143463135E-2,3.215880620E1
1.525420579E1,5.044958954E0,-3.001034317E1,3.766617279E0,3.066365461E1
1.526426279E1,2.883753204E0,-2.873858780E1,3.976929932E0,2.915541859E1
1.527432079E1,2.283202057E0,-2.729603760E1,3.716770935E0,2.764237809E1
1.528437779E1,1.935774536E0,-2.635808807E1,3.993844757E0,2.672913814E1
1.529443579E1,1.544338531E0,-2.495580414E1,3.770060120E0,2.528617201E1
1.530449379E1,8.273295593E-1,-2.268846909E1,1.664388885E0,2.276447438E1
1.531455079E1,-5.499563599E-1,-1.873399246E1,-4.984185333E0,1.939347903E1
1.532460879E1,2.457888794E-1,-1.406160873E1,-8.614286499E0,1.649227650E1
1.533466579E1,2.712808685E0,-1.142843445E1,-5.601950684E0,1.301346596E1
1.534472379E1,3.557801514E0,-9.634864197E0,-5.837111664E0,1.181356984E1
1.535478179E1,3.915108490E0,-6.759194183E0,-9.681417389E0,1.243963919E1
1.536483879E1,4.369264069E0,-4.255201263E0,-1.152812714E1,1.304204438E1
1.537489679E1,3.919599152E0,-3.002156982E0,-1.186836960E1,1.285435339E1
1.538495379E1,3.388653259E0,-1.470991058E0,-1.256996063E1,1.310155319E1
1.539501179E1,2.681673431E0,-7.259902954E-1,-1.077489349E1,1.112729815E1
1.540506979E1,1.883084106E0,-6.104306030E-1,-7.640411682E0,7.892687878E0
1.541512679E1,1.062640228E0,3.981719971E-2,-7.135062561E0,7.213869102E0
1.542518479E1,-1.479972382E0,6.292913818E-1,-8.757987671E0,8.904418787E0
1.543524179E1,-3.264561310E0,-1.577120361E0,-3.289259949E0,4.895293678E0
1.544529979E1,-3.223247223E0,-2.372566223E0,-3.734733582E-1,4.019685994E0
1.545535779E1,-3.697910156E0,-2.220482483E0,7.918533325E-2,4.314087655E0
1.546541479E1,-4.311035156E0,-2.017504578E0,9.440867615E-1,4.852488913E0
1.547547279E1,-6.191574554E0,-1.548679504E0,-1.796564026E0,6.630357907E0
1.548552979E1,-7.640411682E0,-6.572831726E-1,-3.794609070E0,8.556107166E0
1.549558779E1,-5.445226593E0,1.856140137E-1,4.417314148E-1,5.466266720E0
1.550564579E1,-3.362457733E0,1.773811340E-1,3.463048553E0,4.830144031E0
1.551570279E1,-2.163151703E0,8.592132568E-2,4.417164459E0,4.919141147E0
1.552576079E1,-1.392404480E0,2.871029663E-1,4.913981323E0,5.115508850E0
1.553581779E1,-5.774990845E-1,7.713459778E-1,4.731361084E0,4.828483977E0
1.554587579E1,4.917274475E-1,1.082249451E0,3.898493042E0,4.075697211E0
1.555593379E1,8.479866028E-1,1.319506073E0,3.289110260E0,3.643957170E0
1.556599079E1,7.640112305E-1,1.521885223E0,3.137924652E0,3.570212727E0
1.557604879E1,7.372169495E-1,1.604812775E0,3.037782898E0,3.513835199E0
1.558610579E1,7.753875732E-1,1.767674103E0,3.219205627E0,3.753555980E0
1.559616379E1,7.840695190E-1,1.961371307E0,3.857478333E0,4.397940598E0
1.560622179E1,8.348139954E-1,2.039808197E0,4.663252716E0,5.157873378E0
1.561627879E1,1.060394897E0,1.952988739E0,4.828209686E0,5.315092768E0
1.562633679E1,8.887019348E-1,1.587448883E0,3.739673309E0,4.158718738E0
1.563639379E1,3.728746033E-1,1.234931946E0,2.479144592E0,2.794682503E0
1.564645179E1,1.883084106E-1,1.039887543E0,1.612895966E0,1.928278910E0
1.565650979E1,2.579136658E-1,8.339158630E-1,1.107546844E0,1.410175570E0
1.566656679E1,4.628375244E-1,7.309300232E-1,7.327262878E-1,1.133739426E0
1.567662479E1,5.617817688E-1,6.409671021E-1,4.719685364E-1,9.742647900E-1
1.568668179E1,6.101312256E-1,5.275030518E-1,3.159928894E-1,8.662396252E-1
1.569673979E1,6.533912659E-1,3.564088440E-1,1.803749084E-1,7.658214661E-1
1.570679779E1,5.228627014E-1,1.416055298E-1,6.960525513E-2,5.461523800E-1
1.571685479E1,3.369493103E-1,-1.112187195E-1,-4.385879517E-2,3.575304675E-1
1.572691279E1,1.796264648E-1,-2.612068176E-1,-2.231858826E-1,3.876939600E-1
1.573696979E1,2.483335876E-1,-3.195854187E-1,-1.113684082E0,1.184945841E0
1.574702779E1,3.190315704E0,-3.928430786E0,-1.920536224E1,1.986093204E1
1.575708579E1,1.830094299E0,-8.946445770E0,-2.602293503E1,2.757863819E1
1.576714279E1,-2.981649628E0,-9.750274200E0,-1.793630127E1,2.063174701E1
1.577720079E1,-1.025397675E1,-1.772059982E1,-2.278561707E1,3.063246713E1
1.578725779E1,-1.096889008E1,-2.169244034E1,-8.845405884E0,2.586734858E1
1.579731579E1,-7.547604675E0,-1.665212173E1,-5.902675323E0,1.921200329E1
1.580737379E1,-6.138285370E0,-1.954994568E1,-6.072871399E0,2.137191359E1
1.581743079E1,-3.161874847E0,-3.227857635E1,-1.204410416E1,3.459717314E1
1.582748879E1,1.431682800E1,-4.505316147E1,-1.621368347E1,4.997641898E1
1.583754579E1,2.283516403E1,-3.828678223E1,3.587589569E0,4.472351964E1
1.584760379E1,2.282303925E1,-3.220582764E1,9.072783051E0,4.050212151E1
1.585766179E1,1.830782867E1,-2.780213516E1,8.729546814E0,3.441424557E1
1.586771879E1,1.063283890E1,-2.230302063E1,6.414311371E0,2.552695404E1
1.587777679E1,9.243877258E0,-1.636621628E1,-7.257058868E0,2.014862788E1
1.588783379E1,4.849615173E0,-8.442593536E0,-1.571956100E1,1.849055843E1
1.589789179E1,-1.055006104E0,-2.810405731E0,-7.819888458E0,8.376280425E0
1.590794979E1,-2.282752991E0,-3.078049164E0,-3.476670227E0,5.174223008E0
1.591800679E1,-1.055604858E0,-6.159840546E0,-3.062032471E0,6.959452566E0
1.592806479E1,-3.282074890E0,-1.022344025E1,-8.091124420E0,1.344459149E1
1.593812179E1,-7.163204041E0,-1.614422791E1,-9.040450287E0,1.984130359E1
1.594817979E1,-6.055208130E0,-2.049582870E1,-4.750371552E0,2.189316262E1
1.595823779E1,-4.702920227E0,-2.230077530E1,-6.493496704E0,2.369826021E1
1.596829479E1,-3.062331848E0,-2.063384171E1,-5.888604584E0,2.167507702E1
1.597835279E1,-2.018103333E0,-1.708023148E1,-4.211192780E0,1.770709442E1
1.598840979E1,-2.623743896E0,-1.359263397E1,-2.488125916E0,1.406536530E1
1.599846779E1,-2.427951050E0,-1.085737198E1,-1.627415771E0,1.124392968E1
1.600852575E1,-5.156776428E-1,-8.981921997E0,-2.260599060E0,9.276376141E0
1.601858275E1,2.326013031E0,-8.649762726E0,-2.252964935E0,9.236048009E0
1.602864075E1,4.609664154E0,-9.810748444E0,-1.949096832E0,1.101357195E1
1.603869775E1,5.688620453E0,-1.138921600E1,-1.639091492E0,1.283593646E1
1.604875575E1,5.387746124E0,-1.261292130E1,-6.923103333E-1,1.373291249E1
1.605881375E1,4.656367035E0,-1.328726898E1,3.574566650E-1,1.408407066E1
1.606887075E1,4.280798035E0,-1.349234253E1,6.066883850E-1,1.416815477E1
1.607892875E1,4.183051300E0,-1.305001236E1,5.370831299E-1,1.371456157E1
1.608898575E1,4.443659363E0,-1.202524338E1,5.240602112E-1,1.283071416E1
1.609904375E1,4.702471161E0,-1.073881851E1,4.143383789E-1,1.173060673E1
1.610910175E1,4.594395905E0,-9.290729828E0,-2.505789185E-1,1.036768654E1
1.611915875E1,4.052223358E0,-7.973169708E0,-1.317260742E0,9.040305592E0
1.612921675E1,3.079845428E0,-7.202272797E0,-2.248324585E0,8.149426037E0
1.613927375E1,1.982926483E0,-6.481371918E0,-3.424578552E0,7.593939533E0
1.614933175E1,8.005352783E-1,-5.601950684E0,-4.823120270E0,7.435401625E0
1.615938975E1,-3.061134338E-1,-4.813839569E0,-5.496120758E0,7.312598732E0
1.616944675E1,-1.383572845E0,-4.028722229E0,-5.670059052E0,7.091857744E0
1.617950475E1,-1.999990997E0,-3.358416138E0,-5.767656097E0,6.967408399E0
1.618956175E1,-2.237546997E0,-2.668949890E0,-5.971981201E0,6.913354435E0
1.619961975E1,-2.178869019E0,-2.213297424E0,-5.940546570E0,6.703450547E0
1.620967775E1,-2.149380341E0,-2.247426453E0,-6.010750580E0,6.767561159E0
1.621973475E1,-2.484832764E0,-2.970722351E0,-6.132746887E0,7.253286809E0
1.622979275E1,-2.684367828E0,-4.150119781E0,-5.813909912E0,7.630915627E0
1.623984975E1,-2.303410034E0,-5.801785126E0,-5.669759674E0,8.432827710E0
1.624990775E1,-1.540296936E0,-8.111781464E0,-5.763165436E0,1.006914043E1
1.625996575E1,-4.640350342E-2,-1.129506180E1,-4.631219330E0,1.220773389E1
1.627002275E1,8.996292114E-1,-1.411085632E1,-1.776805115E0,1.425070648E1
1.628008075E1,1.656455383E0,-1.559457092E1,1.469643860E0,1.575101075E1
1.629013775E1,2.455194397E0,-1.570264618E1,3.325634308E0,1.623763899E1
1.630019575E1,2.722239075E0,-1.473550735E1,3.512296143E0,1.539097095E1
1.631025375E1,2.184257813E0,-1.255648865E1,3.181783447E0,1.313621465E1
1.632031075E1,1.620829468E0,-1.049228119E1,2.628683624E0,1.093732281E1
1.633036875E1,1.485361176E0,-9.135502625E0,2.117047577E0,9.494503487E0
1.634042575E1,1.594783630E0,-8.234675903E0,1.750609589E0,8.568422025E0
1.635048375E1,1.728605347E0,-7.631280670E0,1.541793823E0,7.975064219E0
1.636054075E1,1.652563477E0,-7.416926422E0,1.344953156E0,7.716907579E0
1.637059875E1,1.320703583E0,-7.869884491E0,1.059945831E0,8.050020188E0
1.638065675E1,8.580157471E-1,-8.582103424E0,8.376580811E-1,8.665469477E0
1.639071375E1,3.758683777E-1,-9.117989044E0,8.229885864E-1,9.162767675E0
1.640077175E1,-9.759704590E-2,-9.461075592E0,1.005608826E0,9.514868662E0
1.641082875E1,-4.706213379E-1,-9.586514740E0,1.208287354E0,9.673815567E0
1.642088675E1,-6.502478027E-1,-9.552535400E0,1.299597473E0,9.662438014E0
1.643094475E1,-7.652087402E-1,-9.547895050E0,1.109642487E0,9.642569717E0
1.644100175E1,-1.168619843E0,-9.783205719E0,9.909393311E-2,9.853253579E0
1.645105975E1,-2.719394989E0,-1.042043060E1,-7.306456146E0,1.301402261E1
1.646111675E1,-3.450923767E0,-1.114881592E1,-1.318113968E1,1.760532347E1
1.647117475E1,-2.055375824E0,-1.124012604E1,-9.176667023E0,1.465524550E1
1.648123275E1,-7.696994019E-1,-1.117471207E1,-5.067861328E0,1.229430134E1
1.649128975E1,5.266049194E-1,-1.118159775E1,-2.372715912E0,1.144269294E1
1.650134775E1,1.527872772E0,-1.118833374E1,-5.758525085E-1,1.130684807E1
1.651140475E1,2.273172913E0,-1.109956833E1,5.861810303E-1,1.134510204E1
1.652146275E1,3.020269318E0,-1.066502197E1,7.607180786E-1,1.111050910E1
1.653152075E1,3.990102539E0,-1.010264145E1,1.868115234E-1,1.086366334E1
1.654157775E1,4.852309570E0,-9.091045074E0,-4.080514526E-1,1.031302646E1
1.655163575E1,6.209088135E0,-7.592810669E0,-1.605561218E0,9.938882037E0
1.656169275E1,7.888146515E0,-5.897136841E0,-3.550317078E0,1.046918477E1
1.657175075E1,7.747139740E0,-4.574487305E0,-3.947740631E0,9.824905310E0
1.658180875E1,6.699169006E0,-3.462150421E0,-4.292922821E0,8.677242492E0
1.659186575E1,6.096671906E0,-2.322121124E0,-6.186485138E0,8.990787129E0
