"Time (s)","Acceleration x (m/s^2)","Acceleration y (m/s^2)","Acceleration z (m/s^2)","Absolute acceleration (m/s^2)"
-4.137499782E-4,-2.239193573E0,2.960094452E0,9.474547577E0,1.017561786E1
9.644250007E-3,-2.225871277E0,2.775827637E0,9.604178009E0,1.024206802E1
1.970125001E-2,-1.962868195E0,2.372266846E0,1.013557297E1,1.059293826E1
2.975925000E-2,-1.604663086E0,1.911225586E0,1.074854828E1,1.103444684E1
3.981625001E-2,-1.359173584E0,1.597028961E0,1.120854172E1,1.140303739E1
4.987425002E-2,-1.267863464E0,1.467847595E0,1.138382721E1,1.154788190E1
5.993125000E-2,-1.122216339E0,1.456321564E0,1.144295425E1,1.158971286E1
6.998925001E-2,-9.373507690E-1,1.626817017E0,1.136736145E1,1.152137433E1
8.004725000E-2,-9.883946228E-1,1.901046753E0,1.077713882E1,1.098806734E1
9.010425000E-2,-1.103954315E0,2.095941467E0,9.976004791E0,1.025340711E1
1.001622500E-1,-1.153351593E0,2.108665009E0,9.163644104E0,9.473598117E0
1.102192500E-1,-1.231788483E0,2.085313568E0,8.599467316E0,8.934017778E0
1.202772500E-1,-1.421893158E0,2.002685394E0,8.412057037E0,8.763288911E0
1.303342500E-1,-1.495989075E0,1.861528931E0,8.482710114E0,8.812470944E0
1.403922500E-1,-1.453028412E0,1.582808533E0,8.541837158E0,8.807925775E0
1.504502500E-1,-1.362616425E0,1.367256775E0,8.782835999E0,8.992459218E0
1.605072500E-1,-1.279539185E0,1.370250549E0,9.219178619E0,9.407872316E0
1.705652500E-1,-9.846524048E-1,1.395248566E0,9.892179108E0,1.003849921E1
1.806222500E-1,-6.066883850E-1,1.333576813E0,1.027164001E1,1.037560054E1
1.906802500E-1,-4.046086121E-1,1.303788757E0,1.010204269E1,1.019386285E1
2.007372500E-1,-3.339555359E-1,1.321601715E0,9.751172333E0,9.845990009E0
2.107952500E-1,-2.195933533E-1,1.327738953E0,9.216633911E0,9.314368074E0
2.208522500E-1,-1.085243225E-1,1.377136230E0,8.611442413E0,8.721537833E0
2.309102500E-1,-7.334747314E-3,1.487307129E0,8.029901733E0,8.166483830E0
2.409682500E-1,-5.209167480E-2,1.579216003E0,7.546856232E0,7.710491276E0
2.510252500E-1,-3.112028503E-1,1.739083557E0,7.277117157E0,7.488504053E0
2.610832500E-1,-6.849755859E-1,1.695823517E0,7.175328827E0,7.404752037E0
2.711402500E-1,-7.472460938E-1,1.577719116E0,7.264992371E0,7.471792856E0
2.811982500E-1,-5.776487732E-1,1.429377594E0,7.693700867E0,7.846644597E0
2.912552500E-1,-3.442840576E-1,1.347497864E0,8.514743500E0,8.627580128E0
3.013132500E-1,-1.122665405E-1,1.468146973E0,1.006402176E1,1.017116479E1
3.113712500E-1,1.700463867E-1,1.853146362E0,1.077504318E1,1.093456093E1
3.214282500E-1,5.215155029E-1,2.335293732E0,1.019978943E1,1.047670175E1
3.314862500E-1,5.712121582E-1,2.760858765E0,9.578880615E0,9.985167915E0
3.415432500E-1,6.026467896E-1,3.044069824E0,8.115823059E0,8.688850797E0
3.516012500E-1,2.171384583E0,2.949765930E0,5.520969086E0,6.625490902E0
3.616582500E-1,1.937271423E0,2.123184814E0,4.028273163E0,4.948526952E0
3.717162500E-1,1.024918671E0,1.221459961E-1,3.891158295E0,4.025728605E0
3.817742500E-1,1.706152039E0,-1.465302887E0,5.411097565E0,5.859867250E0
3.918312500E-1,2.276765442E0,-1.564396820E0,7.704029388E0,8.184318365E0
4.018892500E-1,3.146157532E0,-2.255210266E0,8.202343140E0,9.069879467E0
4.119462500E-1,2.850073242E0,-2.558329926E0,7.534881134E0,8.452360806E0
4.220042500E-1,4.866380310E-1,-3.188070374E0,5.562133484E0,6.429458622E0
4.320612500E-1,2.008822632E-1,-2.345173187E0,5.427263947E0,5.915689724E0
4.421192500E-1,3.429518280E0,6.372248840E-1,7.921227722E0,8.655258506E0
4.521772500E-1,4.590054932E0,2.502645721E0,8.494385834E0,9.974288475E0
4.622342500E-1,3.875590668E0,1.277443542E0,7.150929565E0,8.233338246E0
4.722922500E-1,3.945644989E0,-1.944456482E-1,6.730304260E0,7.804032222E0
4.823492500E-1,4.099674683E0,-9.361532593E-1,5.523962860E0,6.942469381E0
4.924072500E-1,4.169279938E0,-1.058448944E0,4.522695007E0,6.241632759E0
5.024642500E-1,4.716841278E0,-4.715194702E-1,4.306394806E0,6.404370264E0
5.125222500E-1,5.813760223E0,4.514611816E-1,4.705614624E0,7.493092427E0
5.225802500E-1,6.887178040E0,1.258433075E0,6.091582489E0,9.280315316E0
5.326372500E-1,6.755302277E0,6.926097107E-1,6.412814484E0,9.340128835E0
5.426952500E-1,5.863756256E0,-8.752299500E-1,6.846911774E0,9.057034047E0
5.527522500E-1,5.187612305E0,-1.912273407E0,8.412655792E0,1.006682117E1
5.628102500E-1,5.885760498E0,-2.015708313E0,9.587412872E0,1.142907443E1
5.728672500E-1,7.827372894E0,-1.814077606E0,1.088536377E1,1.352958936E1
5.829252500E-1,1.102262833E1,-2.851570129E-1,1.367241806E1,1.756458554E1
5.929832500E-1,1.424422897E1,1.532513123E0,1.710208603E1,2.230981851E1
6.030402500E-1,1.534459076E1,1.110091553E0,2.004391846E1,2.526751741E1
6.130982500E-1,1.480900452E1,-1.031355286E0,2.139126663E1,2.603759967E1
6.231552500E-1,1.380115036E1,-2.356250153E0,2.257246033E1,2.656199600E1
6.332132500E-1,1.345252533E1,-2.774480438E0,2.439791428E1,2.799868569E1
6.432702500E-1,1.321721466E1,-2.598596191E0,2.551144867E1,2.884928905E1
6.533282500E-1,1.294163773E1,-1.849553833E0,2.484323822E1,2.807299987E1
6.633862500E-1,1.352482498E1,-1.266965332E0,2.250944138E1,2.629070260E1
6.734433333E-1,1.405442368E1,-1.613345032E0,1.887844208E1,2.359078808E1
6.835013333E-1,1.120135666E1,-1.780247955E0,1.415681076E1,1.813987223E1
6.935583334E-1,1.015099091E1,-1.466051331E0,1.092248657E1,1.498307832E1
7.036163333E-1,1.098969681E1,-1.645528107E0,8.353828125E0,1.390207334E1
7.136733333E-1,1.171942932E1,-1.560654602E0,5.341641998E0,1.297358106E1
7.237313333E-1,1.204754700E1,-1.048868866E0,2.555485840E0,1.236017890E1
7.337893333E-1,1.149699188E1,-4.972659302E-1,1.560953979E0,1.161312503E1
7.438463334E-1,1.077115128E1,1.401086426E-1,1.497336273E0,1.087563084E1
7.539043333E-1,8.964558105E0,4.966671753E-1,1.234333191E0,9.062756685E0
7.639613333E-1,6.244414673E0,1.553768921E-1,9.141490173E-1,6.312885633E0
7.740193333E-1,3.230282593E0,-6.150709534E-1,1.548978882E0,3.634882871E0
7.840773333E-1,-7.304809570E-2,-1.322200470E0,2.163301392E0,2.536419330E0
7.941343334E-1,-3.374432831E0,-1.381177826E0,1.932930450E0,4.126823142E0
8.041923333E-1,-5.276228027E0,-1.122815094E0,1.064137115E0,5.498334633E0
8.142493333E-1,-5.439089355E0,-1.189426575E0,2.764750671E-1,5.574483569E0
8.243073333E-1,-4.919669495E0,-1.570983124E0,-5.415737915E-1,5.192729348E0
8.343643333E-1,-4.593048706E0,-1.862127686E0,-1.354982300E0,5.138053422E0
8.444223333E-1,-4.252955933E0,-1.997146912E0,-2.050436096E0,5.126452783E0
8.544803333E-1,-3.190315704E0,-2.112407227E0,-2.529140625E0,4.586603415E0
8.645373333E-1,-1.966161346E0,-1.766476593E0,-2.525997162E0,3.656075992E0
8.745953334E-1,-1.168619843E0,-1.222807159E0,-2.084116058E0,2.684114273E0
8.846523333E-1,-7.640112305E-1,-9.744735718E-1,-6.406677246E-1,1.394190459E0
8.947103333E-1,2.290237427E-1,-7.336244202E-1,1.240470428E0,1.459254450E0
9.047673334E-1,1.716031494E0,-4.764591980E-1,2.090402985E0,2.746190469E0
9.148253333E-1,3.709885254E0,-3.098556519E-2,1.854643250E0,4.147759671E0
9.248833334E-1,5.344037018E0,7.117698669E-1,2.147434387E0,5.803173480E0
9.349403333E-1,5.969137115E0,1.893262939E0,2.665806427E0,6.805994884E0
9.449983333E-1,5.623505859E0,2.367925873E0,2.427052917E0,6.566694523E0
9.550553334E-1,5.230273590E0,1.758692780E0,2.173031158E0,5.930499687E0
9.651133333E-1,4.453089752E0,6.821315002E-1,2.000739441E0,4.929327544E0
9.751703333E-1,2.520159302E0,-9.310638428E-2,1.433419189E0,2.900786493E0
9.852283333E-1,1.514101410E0,-4.778063965E-1,5.349874878E-1,1.675414469E0
9.952863333E-1,2.655328217E0,-7.424560547E-2,4.849914551E-2,2.656808709E0
1.005343333E0,4.618944855E0,1.430874481E0,-5.529501343E-1,4.867012143E0
1.015401333E0,5.667065277E0,2.739602966E0,-5.918692017E-1,6.322290915E0
1.025458333E0,6.458170166E0,3.111429749E0,6.825805664E-2,7.168934100E0
1.035516333E0,7.124284973E0,2.733016663E0,9.036708069E-1,7.683842618E0
1.045573333E0,7.186854858E0,2.380499725E0,7.972421265E-1,7.612703640E0
1.055631333E0,5.966143341E0,2.442171478E0,1.927990723E-1,6.449514662E0
1.065689333E0,4.858895874E0,2.476450195E0,-2.484832764E-2,5.453649432E0
1.075746333E0,3.772155762E0,2.435285797E0,1.146615601E-1,4.491427755E0
1.085804333E0,3.167413330E0,2.147883453E0,3.806584167E-1,3.845882391E0
1.095861333E0,3.188968506E0,1.528770905E0,6.599775696E-1,3.597531237E0
1.105919333E0,3.780238953E0,5.957611084E-1,4.186793518E-1,3.849731190E0
1.115976333E0,4.637057190E0,-8.071215820E-1,5.972579956E-2,4.707155383E0
1.126034333E0,5.588329010E0,-3.241509247E0,4.077520752E-1,6.473257687E0
1.136092333E0,8.731492767E0,-5.822142792E0,2.531236267E-1,1.049763708E1
1.146149333E0,1.353575226E1,-9.172625427E0,-1.225351868E0,1.639680254E1
1.156207333E0,1.691302917E1,-1.340851685E1,-2.019600220E0,2.167758439E1
1.166264333E0,1.984887405E1,-1.714340012E1,-2.395318909E0,2.633650549E1
1.176322333E0,2.166519699E1,-1.783361481E1,-1.796414337E0,2.811842247E1
1.186380333E0,2.368150406E1,-1.670092026E1,-9.815089417E-1,2.899478801E1
1.196437333E0,2.708258148E1,-1.480107101E1,8.722361755E-1,3.087553593E1
1.206495333E0,3.062885696E1,-1.112950607E1,3.003055115E0,3.272630631E1
1.216552333E0,3.301190140E1,-7.285799103E0,4.308789825E0,3.407982060E1
1.226610333E0,3.336217300E1,-4.542004852E0,4.640949097E0,3.398827451E1
1.236667333E0,3.058514786E1,-3.349434814E0,4.534819794E0,3.110039507E1
1.246725333E0,2.620256149E1,-3.958368530E0,3.911665649E0,2.678701249E1
1.256783333E0,2.105686203E1,-5.702391815E0,3.036435699E0,2.202563626E1
1.266840333E0,1.619512207E1,-7.072642365E0,1.852697296E0,1.776898242E1
1.276898333E0,1.248748215E1,-7.415579224E0,-6.167175293E-2,1.452349231E1
1.286955333E0,1.002240829E1,-6.689289551E0,-2.597248993E0,1.232643359E1
1.297013333E0,8.212072906E0,-5.140460358E0,-4.521198120E0,1.069129115E1
1.307070333E0,7.321724396E0,-4.052822113E0,-6.264323273E0,1.045345691E1
1.317128333E0,6.982978821E0,-3.275338898E0,-7.222630463E0,1.056675110E1
1.327186333E0,7.119944000E0,-2.952610016E0,-6.765630798E0,1.025598696E1
1.337243333E0,8.969946899E0,-2.233655090E0,-5.479804688E0,1.074604215E1
1.347301333E0,1.076471466E1,-1.711690521E0,-4.185745697E0,1.167601958E1
1.357358333E0,1.133098709E1,-3.441643066E0,-3.563489685E0,1.236667434E1
1.367416333E0,1.289029449E1,-7.061266022E0,-2.820584564E0,1.496585672E1
1.377473333E0,1.569516174E1,-1.046773224E1,-9.159452820E-1,1.888783937E1
1.387531333E0,1.969095245E1,-1.353739883E1,6.363267517E-1,2.390396803E1
1.397589333E0,2.344754059E1,-1.613000748E1,1.852098541E0,2.852007310E1
1.407646333E0,2.632575531E1,-1.674926971E1,2.827919312E0,3.133018602E1
1.417704333E0,2.775827637E1,-1.542796738E1,3.457959137E0,3.194529020E1
1.427761333E0,2.658920746E1,-1.339743988E1,4.160597992E0,3.006306578E1
1.437819333E0,2.440973969E1,-1.144594803E1,4.449497223E0,2.732477161E1
1.447877333E0,2.211546066E1,-9.382039948E0,3.516637115E0,2.427927121E1
1.457934333E0,1.886197632E1,-7.159162445E0,1.872755585E0,2.026166259E1
1.467992333E0,1.537003784E1,-5.116959229E0,-1.227447510E-2,1.619942856E1
1.478049333E0,1.171643555E1,-3.550317078E0,-1.243164825E0,1.230548951E1
1.488107333E0,8.055648193E0,-2.273023224E0,-1.941462708E0,8.592402448E0
1.498164333E0,5.103786621E0,-1.035995636E0,-2.360740814E0,5.717956105E0
1.508222333E0,2.759960632E0,7.035369873E-2,-2.833008728E0,3.955789528E0
1.518280333E0,1.149160309E0,9.334588623E-1,-3.279380493E0,3.598089949E0
1.528337333E0,2.568658447E-1,1.340163116E0,-3.344345398E0,3.612016526E0
1.538395333E0,-9.081614685E-1,1.456171875E0,-2.921325073E0,3.388116581E0
1.548452333E0,-2.639161835E0,1.419947205E0,-2.067201233E0,3.640706826E0
1.558510333E0,-4.265529785E0,1.514999542E0,-7.397616577E-1,4.586634417E0
1.568567333E0,-5.455405426E0,1.547781372E0,6.583309937E-1,5.708806814E0
1.578625333E0,-6.062692566E0,1.237776031E0,1.914818115E0,6.477257064E0
1.588683333E0,-5.836213531E0,8.291258240E-1,2.612068176E0,6.447614921E0
1.598740333E0,-4.919370117E0,5.078938293E-1,2.650089111E0,5.610804825E0
1.608798333E0,-3.738625488E0,8.876541138E-2,2.094444580E0,4.286245203E0
1.618855333E0,-2.104773102E0,-2.656974792E-1,1.161883850E0,2.418809426E0
1.628913333E0,-1.457968140E-1,-3.670367432E-1,3.167413330E-1,5.062585840E-1
1.638970333E0,1.313668213E0,2.035766602E-2,-2.809657288E-1,1.343532787E0
1.649028333E0,1.832788696E0,6.095324707E-1,-6.245013428E-1,2.029937478E0
1.659086333E0,1.645677795E0,9.075627136E-1,-8.961863708E-1,2.082084412E0
1.669143375E0,1.357976074E0,6.342311096E-1,-7.499404907E-1,1.675935219E0
1.679201375E0,9.195378113E-1,1.954934692E-1,-4.472698975E-1,1.041065725E0
1.689258375E0,5.643264771E-1,-8.202941895E-2,-3.393443298E-1,6.635870497E-1
1.699316375E0,5.640270996E-1,-2.451901245E-1,-4.523593140E-1,7.634616658E-1
1.709374375E0,6.686595154E-1,-3.263214111E-1,-5.456153870E-1,9.226523513E-1
1.719431375E0,8.668473816E-1,-3.216810608E-1,-6.581813049E-1,1.134947452E0
1.729489375E0,1.836081848E0,-3.817062378E-1,-9.142987061E-1,2.086345688E0
1.739546375E0,3.359613647E0,-3.143463135E-2,-1.414857788E0,3.645519792E0
1.749604375E0,4.434827728E0,1.128054199E0,-1.582060089E0,4.841809309E0
1.759661375E0,4.831053772E0,2.195185089E0,-1.373843079E0,5.481365061E0
1.769719375E0,4.756957855E0,2.624192963E0,-1.079105988E0,5.538908419E0
1.779777375E0,4.534071350E0,2.509232025E0,-7.957452393E-1,5.242829279E0
1.789834375E0,4.275708618E0,2.023791504E0,-6.650669861E-1,4.777000140E0
1.799892375E0,3.963907013E0,1.244212646E0,-7.111711121E-1,4.215019367E0
1.809949375E0,3.919898529E0,4.032614136E-1,-7.101232910E-1,4.004060356E0
1.820007375E0,3.854035492E0,-9.074130249E-1,-1.183439026E0,4.132495118E0
1.830064375E0,3.804787903E0,-2.496658173E0,-1.453477478E0,4.777270120E0
1.840122375E0,4.528083801E0,-4.316573639E0,-1.342707825E0,6.398375981E0
1.850180375E0,6.327940979E0,-6.970854034E0,-1.516346741E0,9.535981881E0
1.860237375E0,9.179361420E0,-1.064122147E1,-1.564247131E0,1.414012516E1
1.870295375E0,1.273476791E1,-1.437236252E1,-1.135089569E0,1.923610009E1
1.880352375E0,1.610545853E1,-1.812984879E1,-2.079176331E-1,2.425119463E1
1.890410375E0,1.707723770E1,-1.942645248E1,1.362167358E0,2.590124714E1
1.900467375E0,1.520657776E1,-1.649000885E1,2.693648529E0,2.259239123E1
1.910525375E0,1.393497208E1,-1.287547531E1,2.908900909E0,1.919434854E1
1.920583375E0,1.434556824E1,-1.105945175E1,2.521955566E0,1.828844064E1
1.930640375E0,1.475347000E1,-1.065110092E1,2.292183380E0,1.834025443E1
1.940698375E0,1.494088028E1,-1.111528564E1,2.250569916E0,1.875751965E1
1.950755375E0,1.579784821E1,-1.212209198E1,2.301913147E0,2.004534674E1
1.960813375E0,1.597507965E1,-1.278820679E1,2.189496918E0,2.057997326E1
1.970870375E0,1.461021790E1,-1.277383667E1,1.137484589E0,1.944024798E1
1.980928375E0,1.283520905E1,-1.211355972E1,-5.984555054E-1,1.765896569E1
1.990986375E0,1.137559433E1,-1.128548172E1,-2.027384033E0,1.615167267E1
2.001043375E0,1.041983185E1,-1.089150101E1,-2.843037872E0,1.533885766E1
2.011101375E0,9.452243958E0,-1.076950470E1,-3.273991699E0,1.469850907E1
2.021158375E0,8.453670502E0,-1.062520477E1,-3.284769287E0,1.396958234E1
2.031216375E0,7.545958099E0,-1.043569885E1,-3.052452393E0,1.323490687E1
2.041274375E0,6.922055511E0,-1.001866608E1,-2.632575531E0,1.245869080E1
2.051331375E0,6.821165314E0,-9.342222748E0,-2.288141785E0,1.179156541E1
2.061389375E0,6.796616364E0,-8.439749451E0,-2.201771393E0,1.105762913E1
2.071446375E0,6.953789520E0,-7.573650513E0,-2.473157043E0,1.057505917E1
2.081504375E0,7.317982178E0,-7.069049835E0,-2.953508148E0,1.059469391E1
2.091561375E0,7.628286896E0,-6.710994415E0,-3.108435974E0,1.062499794E1
2.101619375E0,7.776179352E0,-6.384074249E0,-2.856360168E0,1.045868839E1
2.111677375E0,7.570057983E0,-6.067332916E0,-2.279759216E0,9.965721684E0
2.121734375E0,7.299720154E0,-5.580844574E0,-1.502874756E0,9.310766511E0
2.131792375E0,7.573051758E0,-4.984784088E0,-7.809260559E-1,9.099946749E0
2.141849375E0,8.454269257E0,-4.302802277E0,-9.669891357E-2,9.486734252E0
2.151907375E0,9.132359161E0,-3.475323029E0,3.600013733E-1,9.777906473E0
2.161964375E0,9.247170410E0,-2.733316040E0,3.929328918E-1,9.650677356E0
2.172022375E0,9.115743713E0,-2.330503693E0,6.316864014E-2,9.409145614E0
2.182080375E0,8.904682617E0,-2.435285797E0,-4.180805969E-1,9.241146077E0
2.192137375E0,8.473579102E0,-2.762804718E0,-9.711804199E-1,8.965368041E0
2.202195375E0,7.954608307E0,-3.295247498E0,-1.573378143E0,8.752712046E0
2.212252375E0,7.433392181E0,-4.092639313E0,-2.037263489E0,8.726709482E0
2.222310375E0,6.900500336E0,-4.759053497E0,-2.071991272E0,8.634734675E0
2.232367375E0,6.714437256E0,-5.041366425E0,-1.856888580E0,8.599248705E0
2.242425375E0,6.968908081E0,-5.072801056E0,-1.332828369E0,8.722122555E0
2.252483375E0,7.581584015E0,-4.928650818E0,-6.387217712E-1,9.065317455E0
2.262540375E0,8.349636841E0,-4.719835052E0,-1.588197327E-1,9.592627482E0
2.272598375E0,9.335037689E0,-4.590204620E0,1.957928467E-1,1.040438571E1
2.282655375E0,9.824220428E0,-4.550088043E0,1.778302002E-1,1.082821462E1
2.292713375E0,9.806407471E0,-4.865781555E0,1.017883301E-2,1.094721705E1
2.302771375E0,9.623487854E0,-5.422024841E0,-1.308279419E-1,1.104658263E1
2.312828375E0,9.448801117E0,-6.081553345E0,-1.278341675E-1,1.123750307E1
2.322886375E0,9.524992676E0,-6.785090332E0,-5.358856201E-2,1.169469145E1
2.332943375E0,9.591753845E0,-7.251071320E0,-3.891906738E-3,1.202413374E1
2.343001375E0,9.671388245E0,-7.265142059E0,-1.567240906E-1,1.209721464E1
2.353058375E0,9.838740234E0,-6.790928192E0,-4.712200928E-1,1.196409476E1
2.363116375E0,1.010533585E1,-6.325396271E0,-6.457571411E-1,1.193924004E1
2.373174375E0,1.055919205E1,-5.963748322E0,-3.963757324E-1,1.213342262E1
2.383231375E0,1.127560226E1,-5.539380798E0,-2.719844055E-1,1.256574397E1
2.393289375E0,1.210053680E1,-5.217100983E0,-3.999682617E-1,1.318336483E1
2.403346375E0,1.295481033E1,-5.457351379E0,-2.369572449E-1,1.405937209E1
2.413404375E0,1.403271881E1,-6.090834045E0,1.248403931E-1,1.529807314E1
2.423461375E0,1.557421326E1,-7.496111755E0,3.143463135E-2,1.728435125E1
2.433519375E0,1.716645218E1,-9.727521515E0,-4.135899353E-1,1.973531889E1
2.443577375E0,1.840632385E1,-1.225396774E1,-7.665559387E-1,2.212555290E1
2.453634375E0,1.948992050E1,-1.472637634E1,-1.300944672E0,2.446253500E1
2.463692375E0,2.163046921E1,-1.708711716E1,-1.788929901E0,2.762330612E1
2.473749375E0,2.402803345E1,-1.940175385E1,-1.996398468E0,3.094769863E1
2.483807375E0,2.484323822E1,-2.091570557E1,-1.736089783E0,3.252179627E1
2.493864375E0,2.405901901E1,-2.137435181E1,-1.333277435E0,3.220988885E1
2.503922375E0,2.212578918E1,-2.119532410E1,-1.631607056E-1,3.064015228E1
2.513980375E0,1.957045303E1,-1.995994308E1,1.079555054E0,2.797440614E1
2.524037375E0,1.698158661E1,-1.759156815E1,1.644779663E0,2.450597588E1
2.534095375E0,1.504027359E1,-1.478999405E1,2.253114624E0,2.121391711E1
2.544152375E0,1.364128281E1,-1.251816833E1,2.101479950E0,1.863344716E1
2.554210375E0,1.162407761E1,-1.037702087E1,1.435365143E0,1.564806747E1
2.564268375E0,9.171727295E0,-8.021968231E0,1.679507446E-1,1.218608893E1
2.574325375E0,6.637347565E0,-5.269042969E0,-1.918111267E0,8.688863409E0
2.584383375E0,4.549638977E0,-2.359094238E0,-4.108656006E0,6.568530629E0
2.594440375E0,3.394790497E0,3.799099731E-1,-5.076094208E0,6.118469295E0
2.604498375E0,2.424508209E0,2.627635803E0,-4.833149414E0,6.011825283E0
2.614555375E0,8.273295593E-1,4.305496674E0,-4.133504333E0,6.025581622E0
2.624613375E0,-1.257834320E0,4.771777039E0,-2.866389313E0,5.706854736E0
2.634671375E0,-3.195704498E0,4.198618927E0,-1.168919220E0,5.404377881E0
2.644728375E0,-4.664599915E0,3.266956329E0,7.340734863E-1,5.741982228E0
2.654786375E0,-5.618865509E0,2.421813812E0,2.383493500E0,6.566420106E0
2.664843375E0,-6.370452576E0,2.069147186E0,3.453917542E0,7.536151702E0
2.674901458E0,-6.734345856E0,1.867366791E0,3.935466156E0,8.020371980E0
2.684958458E0,-6.250551910E0,1.051413574E0,3.823349304E0,7.402220585E0
2.695016458E0,-5.372926941E0,-1.276844788E-1,3.083138580E0,6.195997962E0
2.705074458E0,-4.638254700E0,-1.059796143E0,1.731150055E0,5.062949243E0
2.715131458E0,-3.702101440E0,-1.489402771E0,5.388793945E-2,3.990836955E0
2.725189458E0,-2.294129333E0,-1.562001801E0,-1.728605347E0,3.269702657E0
2.735246458E0,-7.574249268E-1,-1.245859222E0,-3.202440491E0,3.518733127E0
2.745304458E0,7.723937988E-1,-5.878276062E-1,-4.057761841E0,4.172237365E0
2.755361458E0,1.927092590E0,1.525328064E-1,-4.106859741E0,4.539080198E0
2.765419458E0,2.280357971E0,5.902226257E-1,-3.428171082E0,4.159417290E0
2.775477458E0,2.156266022E0,5.490582275E-1,-2.195634155E0,3.125981036E0
2.785534458E0,2.033670959E0,1.140628052E-1,-9.086105347E-1,2.230336521E0
2.795592458E0,1.935325470E0,-3.128494263E-1,-2.110610962E-2,1.960562395E0
2.805649458E0,1.768422546E0,-5.900729370E-1,4.716691589E-1,1.923012264E0
2.815707458E0,1.675016785E0,-6.201603699E-1,6.959028625E-1,1.916914424E0
2.825765458E0,1.867815857E0,-3.668870544E-1,6.632707214E-1,2.015755500E0
2.835822458E0,2.460583191E0,1.380130005E-1,3.409909058E-1,2.487929265E0
2.845880458E0,3.139720917E0,6.493496704E-1,-1.101708984E-1,3.208058612E0
2.855937458E0,3.544179840E0,1.170416107E0,-4.908293152E-1,3.764571426E0
2.865995458E0,3.437152405E0,1.641636200E0,-8.370593262E-1,3.899955690E0
2.876052458E0,2.983445892E0,1.787433014E0,-1.197958832E0,3.678446892E0
2.886110458E0,2.442770233E0,1.466949463E0,-1.358724518E0,3.156770415E0
2.896168458E0,1.948797455E0,8.686436462E-1,-1.177601166E0,2.437026428E0
2.906225458E0,1.664688263E0,3.887416077E-1,-8.144563293E-1,1.893580250E0
2.916283458E0,1.511407013E0,2.481838989E-1,-1.107696533E-1,1.535648502E0
2.926340458E0,1.569785614E0,2.396516418E-1,5.224136353E-1,1.671698475E0
2.936398458E0,1.670226746E0,1.335223389E-1,7.840695190E-1,1.849932595E0
2.946456458E0,1.838626556E0,-1.429527283E-1,9.104067993E-1,2.056653504E0
2.956513458E0,2.112856293E0,-5.034031677E-1,8.954379272E-1,2.349337256E0
2.966571458E0,2.554587708E0,-8.961863708E-1,3.713777161E-1,2.732579326E0
2.976628458E0,3.550167389E0,-2.020348663E0,-7.409591675E-1,4.151447663E0
2.986686458E0,5.694757690E0,-4.315825195E0,-1.482217712E0,7.297505164E0
2.996743458E0,8.593629456E0,-7.857460327E0,-1.796863403E0,1.178214191E1
3.006801458E0,1.186597458E1,-1.178813644E1,-2.060315552E0,1.685248984E1
3.016859458E0,1.547496964E1,-1.585832245E1,-2.171085205E0,2.226375276E1
3.026916458E0,1.860930176E1,-1.912093781E1,-1.679956512E0,2.673459609E1
3.036974458E0,2.171489365E1,-2.136537048E1,-8.948391724E-1,3.047648928E1
3.047031458E0,2.566817276E1,-2.418221283E1,4.044589233E-1,3.526752185E1
3.057089458E0,2.777728683E1,-2.576831451E1,2.428998871E0,3.796687678E1
3.067146458E0,2.618549698E1,-2.239762390E1,4.269721069E0,3.472123740E1
3.077204458E0,2.431348984E1,-1.611024857E1,4.870122528E0,2.957032280E1
3.087262458E0,2.391861099E1,-1.194755493E1,5.037773895E0,2.720704296E1
3.097319458E0,2.333153183E1,-9.732311554E0,5.146298218E0,2.579850095E1
3.107377458E0,2.240151581E1,-8.346792755E0,4.798721008E0,2.438287479E1
3.117434458E0,2.121178986E1,-7.836803284E0,3.534899139E0,2.288779209E1
3.127492458E0,1.952180420E1,-8.496481476E0,1.507365417E0,2.134392624E1
3.137549458E0,1.686198532E1,-9.329499207E0,-6.015989685E-1,1.928024963E1
3.147607458E0,1.399679352E1,-9.751172333E0,-2.420316925E0,1.722943774E1
3.157665458E0,1.141166931E1,-9.180409241E0,-3.854334869E0,1.514470229E1
3.167722458E0,9.391919403E0,-7.698640594E0,-5.300926666E0,1.325054869E1
3.177780458E0,8.114625549E0,-5.865253143E0,-6.618486786E0,1.200219603E1
3.187837458E0,7.303013306E0,-3.979774017E0,-7.297923889E0,1.106491291E1
3.197895458E0,6.645281067E0,-2.378254395E0,-7.215295715E0,1.009338133E1
3.207953458E0,6.175557861E0,-1.314266968E0,-6.479575653E0,9.047083132E0
3.218010458E0,5.951473846E0,-8.761280823E-1,-5.160518646E0,7.925818195E0
3.228068458E0,5.657934265E0,-9.434880066E-1,-3.817212067E0,6.890101431E0
3.238125458E0,5.153632965E0,-1.198258209E0,-2.567161560E0,5.880992599E0
3.248183458E0,4.608616333E0,-1.497485962E0,-1.369951172E0,5.035729830E0
3.258240458E0,4.251009979E0,-1.821861420E0,-2.908451843E-1,4.634097085E0
3.268298458E0,4.229005737E0,-2.001936951E0,5.918692017E-1,4.716200826E0
3.278356458E0,4.516108704E0,-2.071691895E0,1.182391205E0,5.107366649E0
3.288413458E0,5.108576660E0,-2.056872711E0,1.189725952E0,5.634157318E0
3.298471458E0,5.868695984E0,-1.941013641E0,6.442602539E-1,6.214836907E0
3.308528458E0,6.344706116E0,-1.898352356E0,7.589218140E-2,6.623050429E0
3.318586458E0,6.521189117E0,-2.031575317E0,-3.219804382E-1,6.837900056E0
3.328643458E0,6.531367950E0,-2.341430969E0,-5.303471375E-1,6.958615838E0
3.338701458E0,6.306535492E0,-2.850522308E0,-6.427633667E-1,6.950612353E0
3.348759458E0,6.280938721E0,-3.742068329E0,-6.433621216E-1,7.339426504E0
3.358816458E0,6.619684296E0,-5.011428680E0,-6.381230164E-1,8.327174706E0
3.368874458E0,7.022346954E0,-6.337670746E0,-4.334985352E-1,9.469284461E0
3.378931458E0,7.403155060E0,-7.558831329E0,-1.812730408E-1,1.058184747E1
3.388989458E0,7.707771606E0,-8.606951752E0,-8.412506104E-2,1.155406589E1
3.399047458E0,8.109536133E0,-9.387428741E0,1.619631958E-1,1.240623338E1
3.409104458E0,8.672515411E0,-9.673483887E0,5.978567505E-1,1.300562366E1
3.419162458E0,9.252110138E0,-9.335636444E0,9.334588623E-1,1.317675966E1
3.429219458E0,9.652677155E0,-8.555309143E0,8.900491333E-1,1.292902464E1
3.439277458E0,1.000639160E1,-7.504943390E0,1.032103729E0,1.255058908E1
3.449334458E0,1.029813492E1,-6.650220795E0,1.157243500E0,1.231325432E1
3.459392458E0,1.029783554E1,-5.995332642E0,1.088087311E0,1.196550727E1
3.469450458E0,9.970466309E0,-5.459746399E0,1.212478638E0,1.143193481E1
3.479507458E0,9.653275909E0,-5.242697754E0,1.291214905E0,1.106068947E1
3.489565458E0,9.338630219E0,-5.220244446E0,1.432071991E0,1.079406303E1
3.499622458E0,8.879684601E0,-5.107977905E0,1.548978882E0,1.036048129E1
3.509680458E0,8.488098907E0,-4.860243073E0,1.373394012E0,9.877043935E0
3.519737458E0,8.047415314E0,-4.526287537E0,9.416917419E-1,9.280891952E0
3.529795458E0,7.573051758E0,-4.162094879E0,3.773652649E-1,8.649656135E0
3.539853458E0,7.110214233E0,-3.926933899E0,-3.149450684E-1,8.128662048E0
3.549910458E0,6.658902740E0,-3.860172729E0,-8.554710388E-1,7.744272071E0
3.559968458E0,6.101461945E0,-3.732039185E0,-1.212628326E0,7.254407060E0
3.570025458E0,5.321883087E0,-3.578009491E0,-1.452729034E0,6.575333692E0
3.580083458E0,4.461322632E0,-3.457659760E0,-1.554217987E0,5.854434575E0
3.590141458E0,3.696862335E0,-3.492088165E0,-1.626667328E0,5.339243156E0
3.600198458E0,3.082689514E0,-3.650458832E0,-1.613494720E0,5.043033763E0
3.610256458E0,2.537074127E0,-3.852987671E0,-1.539099426E0,4.863238238E0
3.620313458E0,1.893262939E0,-3.921395416E0,-1.534459076E0,4.616963420E0
3.630371458E0,1.357527008E0,-3.690425720E0,-1.573976898E0,4.235507626E0
3.640428458E0,1.096020813E0,-3.314856720E0,-1.508862305E0,3.803446089E0
3.650486458E0,1.091679840E0,-2.940335541E0,-1.472487946E0,3.464903854E0
3.660544458E0,1.668580170E0,-2.396666107E0,-1.676363983E0,3.367248790E0
3.670602333E0,2.871179352E0,-1.422791290E0,-8.961863708E-1,3.327334660E0
3.680660333E0,4.031716003E0,-2.921923828E-1,1.197509766E-2,4.042307970E0
3.690717333E0,4.479734344E0,5.803431702E-1,5.942642212E-2,4.517560126E0
3.700775333E0,4.702770538E0,1.103505249E0,1.588197327E-1,4.833114759E0
3.710833333E0,4.950655060E0,1.444047089E0,4.598437500E-1,5.177423470E0
3.720890333E0,5.045108643E0,1.218017120E0,4.135899353E-1,5.206509729E0
3.730948333E0,5.288951569E0,1.826202393E-1,-1.071771240E-1,5.293188621E0
3.741005333E0,6.175857239E0,-1.518891449E0,-1.176852722E0,6.467861022E0
3.751063333E0,7.826474762E0,-4.191583557E0,-2.116748199E0,9.127086219E0
3.761120333E0,1.007360184E1,-7.811356201E0,-2.886896667E0,1.307015348E1
3.771178333E0,1.275362869E1,-1.215996323E1,-3.610342255E0,1.798761579E1
3.781236333E0,1.496243546E1,-1.559457092E1,-3.405867462E0,2.187841517E1
3.791293333E0,1.727722183E1,-1.729668137E1,-2.153571625E0,2.454211587E1
3.801351333E0,2.023836411E1,-1.749771332E1,5.209167480E-2,2.675376733E1
3.811408333E0,2.444955688E1,-1.686093750E1,2.722688141E0,2.982423639E1
3.821466333E0,2.995899994E1,-1.615515518E1,4.870122528E0,3.438384519E1
3.831523333E0,3.488974640E1,-1.585053864E1,5.705535278E0,3.874386547E1
3.841581333E0,3.772185699E1,-1.632864441E1,4.465962982E0,4.134619630E1
3.851639333E0,3.952291168E1,-1.962134720E1,3.313808899E0,4.424973608E1
3.861696333E0,4.045502335E1,-2.422232941E1,3.684288483E0,4.729592094E1
3.871754333E0,3.860891235E1,-2.589764557E1,4.575235748E0,4.671476149E1
3.881811333E0,3.527908676E1,-2.447784805E1,5.529501343E0,4.329381472E1
3.891869333E0,3.186887833E1,-2.183404587E1,5.980663147E0,3.909116648E1
3.901927333E0,2.794927917E1,-1.823597809E1,6.593189392E0,3.401739628E1
3.911984333E0,2.308664108E1,-1.379441437E1,7.211104431E0,2.784383040E1
3.922042333E0,1.831755844E1,-1.009111542E1,6.348747711E0,2.185566643E1
3.932099333E0,1.425650345E1,-7.563771057E0,4.525389404E0,1.676119544E1
3.942157333E0,1.001252884E1,-5.148094482E0,2.169887695E0,1.146568895E1
3.952214333E0,5.015769653E0,-2.734214172E0,-7.545808411E-1,5.762227399E0
3.962272333E0,-6.225553894E-1,-7.376660156E-1,-3.909120941E0,4.026531124E0
3.972330333E0,-6.714586945E0,1.781295776E-2,-8.386011200E0,1.074295951E1
3.982387333E0,-1.281559982E1,1.775308228E-1,-1.281395325E1,1.812370034E1
3.992445333E0,-1.715747086E1,-5.239105225E-3,-1.564262100E1,2.321789020E1
4.002502333E0,-1.980411713E1,1.389410706E0,-1.501707184E1,2.489268896E1
4.012560333E0,-1.852233261E1,1.654659119E0,-1.175086395E1,2.199767046E1
4.022617333E0,-1.450169357E1,3.414399719E-1,-8.879085846E0,1.700746493E1
4.032675333E0,-9.591604156E0,-4.730163574E-1,-6.477030945E0,1.158337363E1
4.042733333E0,-3.792962494E0,-3.876937866E-1,-4.565955048E0,5.948513802E0
4.052790333E0,1.281185760E0,2.285746765E-1,-2.570005646E0,2.880731219E0
4.062848333E0,5.272036743E0,5.146298218E-1,-6.011499023E-1,5.331097118E0
4.072905333E0,7.545658722E0,6.584806824E-1,8.180488586E-1,7.618383443E0
4.082963333E0,8.005652161E0,6.126759338E-1,2.154170380E0,8.313019207E0
4.093021333E0,7.877967682E0,6.634204102E-1,3.543581085E0,8.663686764E0
4.103078333E0,7.288792877E0,8.117619324E-1,4.772226105E0,8.749834343E0
4.113136333E0,6.360124054E0,7.996371460E-1,5.812562714E0,8.653119833E0
4.123193333E0,5.299878845E0,5.791456604E-1,6.487808533E0,8.397367744E0
4.133251333E0,4.255949707E0,1.788780212E-1,6.777007141E0,8.004556893E0
4.143308333E0,3.463647308E0,-2.055226135E-1,6.729555817E0,7.571394436E0
4.153366333E0,3.327879639E0,-2.297721863E-1,6.730304260E0,7.511629223E0
4.163424333E0,3.419189758E0,7.589218140E-2,6.605014801E0,7.437932424E0
4.173481333E0,3.121907959E0,2.251318359E-1,5.978268127E0,6.748087392E0
4.183539333E0,2.542612610E0,2.179467773E-1,4.793481903E0,5.430455638E0
4.193596333E0,1.886676636E0,2.929408264E-1,3.295696564E0,3.808802817E0
4.203654333E0,1.322050781E0,4.580474854E-1,1.950294342E0,2.400265358E0
4.213712333E0,8.285270691E-1,4.408332825E-1,8.303233337E-1,1.253087358E0
4.223769333E0,1.913021851E-1,2.493814087E-1,1.856140137E-2,3.148525665E-1
4.233827333E0,-6.150709534E-1,3.107537842E-1,-4.035607910E-1,7.985871926E-1
4.243884333E0,-1.308578796E0,7.039860535E-1,-6.092330933E-1,1.605970047E0
4.253942333E0,-1.689835968E0,1.031804352E0,-8.226892090E-1,2.144057684E0
4.263999333E0,-1.874402161E0,1.056203613E0,-1.132095795E0,2.431170587E0
4.274057333E0,-1.873204651E0,8.888516235E-1,-1.441502380E0,2.525248896E0
4.284115333E0,-1.429078217E0,8.521778870E-1,-1.569635925E0,2.287406531E0
4.294172333E0,-5.514532471E-1,9.412426758E-1,-1.508263550E0,1.861423486E0
4.304230333E0,2.490820312E-1,9.653425598E-1,-1.208886108E0,1.566950458E0
4.314287333E0,1.097517700E0,9.199868774E-1,-9.081614685E-1,1.695782477E0
4.324345333E0,1.628762970E0,8.539741516E-1,-8.725355530E-1,2.035548809E0
4.334403333E0,1.763482819E0,5.406756592E-1,-1.221010895E0,2.212028351E0
4.344460333E0,1.563498688E0,-1.047821045E-2,-1.516945496E0,2.178476894E0
4.354518333E0,1.129700775E0,-3.817062378E-1,-1.515897675E0,1.928696257E0
4.364575333E0,8.544232178E-1,-3.861968994E-1,-1.221010895E0,1.539498193E0
4.374633333E0,1.075962524E0,-3.394940186E-1,-1.083446960E0,1.564227879E0
4.384690333E0,1.939666443E0,-4.149371338E-1,-1.316961365E0,2.380938044E0
4.394748333E0,3.188369751E0,-4.559518433E-1,-2.128872986E0,3.860789290E0
4.404806333E0,4.791386261E0,-9.095086670E-1,-2.656675415E0,5.553603567E0
4.414863333E0,6.588549042E0,-2.652633820E0,-2.757565613E0,7.619029647E0
4.424921333E0,8.565637665E0,-5.990093536E0,-3.161126404E0,1.091989420E1
4.434978333E0,1.174113419E1,-1.078028229E1,-3.251388702E0,1.626776711E1
4.445036333E0,1.709864319E1,-1.635229523E1,-2.609972534E0,2.380279636E1
4.455094333E0,2.333781876E1,-2.104503662E1,-1.528920593E0,3.146243711E1
4.465151333E0,2.779704575E1,-2.383822815E1,-1.062041473E0,3.663420267E1
4.475209333E0,3.050117249E1,-2.477273483E1,-1.772015076E0,3.933382706E1
4.485266333E0,3.346485947E1,-2.726116013E1,-2.169738007E0,4.321776757E1
4.495324333E0,3.405328583E1,-3.033367081E1,-8.385562134E-1,4.561207117E1
4.505381333E0,2.872601395E1,-2.775453415E1,1.956880646E0,3.999159193E1
4.515439333E0,2.192355972E1,-2.094908615E1,5.432952118E0,3.080622746E1
4.525497333E0,1.877036682E1,-1.574396027E1,8.426576843E0,2.590764661E1
4.535554333E0,1.779469574E1,-1.250319946E1,1.029933243E1,2.406361240E1
4.545612333E0,1.784244644E1,-1.065469345E1,1.075752960E1,2.340085107E1
4.555669333E0,1.782882477E1,-9.862840118E0,9.730365601E0,2.257925204E1
4.565727333E0,1.737736359E1,-1.017194733E1,6.740483093E0,2.123382655E1
4.575785333E0,1.580997299E1,-1.067280579E1,2.514321442E0,1.924021418E1
4.585842333E0,1.328831680E1,-1.087144272E1,-2.681523743E0,1.737694449E1
4.595900333E0,9.824070740E0,-1.043450134E1,-7.728428650E0,1.628249961E1
4.605957333E0,5.738915863E0,-8.512947235E0,-1.144894180E1,1.537802635E1
4.616015333E0,2.494712219E0,-5.628595276E0,-1.311737228E1,1.449034608E1
4.626072333E0,1.456920319E0,-3.461551666E0,-1.199425781E1,1.256849940E1
4.636130333E0,2.047741699E0,-2.612367554E0,-9.294921112E0,9.869816046E0
4.646188333E0,3.187471619E0,-2.063309326E0,-6.317163391E0,7.370466336E0
4.656245333E0,3.975882111E0,-1.469793549E0,-3.754791870E0,5.662719631E0
4.666303333E0,4.450095978E0,-9.934840393E-1,-1.175056458E0,4.708622137E0
4.676359875E0,4.698130188E0,-7.674540710E-1,1.328786774E0,4.942376686E0
4.686417875E0,4.857398987E0,-7.542814636E-1,2.944227448E0,5.729898839E0
4.696475875E0,4.997357941E0,-8.211923218E-1,3.222947845E0,6.002943947E0
4.706532875E0,5.188959503E0,-1.023122406E0,2.638712769E0,5.910574021E0
4.716590875E0,5.451513519E0,-1.445543976E0,1.742526398E0,5.902964957E0
4.726647875E0,5.673052826E0,-1.782493286E0,7.101232910E-1,5.988746594E0
4.736705875E0,5.975873108E0,-2.097588043E0,-5.924679565E-1,6.360971096E0
4.746762875E0,5.980513458E0,-2.579136658E0,-1.659598846E0,6.721068029E0
4.756820875E0,5.998625793E0,-3.247496796E0,-2.353705444E0,7.215932107E0
4.766878875E0,6.267766113E0,-3.907624054E0,-2.679877167E0,7.857236119E0
4.776935875E0,6.656657410E0,-4.596341858E0,-2.496508484E0,8.465813662E0
4.786993875E0,7.194488983E0,-5.714217224E0,-1.915267181E0,9.385158421E0
4.797050875E0,7.748037872E0,-7.143445129E0,-8.857081604E-1,1.057569752E1
4.807108875E0,8.159382477E0,-8.505612488E0,3.882925415E-1,1.179286807E1
4.817166875E0,8.602012024E0,-9.610315247E0,1.213825836E0,1.295477299E1
4.827223875E0,8.953331451E0,-1.031235535E1,1.418450317E0,1.373021552E1
4.837281875E0,9.275611267E0,-1.061876816E1,1.635948029E0,1.419406663E1
4.847338875E0,9.618248749E0,-1.028720764E1,1.876198425E0,1.420765535E1
4.857396875E0,9.724378052E0,-9.326505432E0,2.096839600E0,1.363612732E1
4.867454875E0,9.484427032E0,-8.437803497E0,1.873953094E0,1.283209196E1
4.877511875E0,8.930878143E0,-7.773784332E0,1.515897675E0,1.193692812E1
4.887569875E0,7.984396362E0,-7.279512177E0,1.134341125E0,1.086409741E1
4.897626875E0,7.053781586E0,-6.794371033E0,6.183641052E-1,9.813342272E0
4.907684875E0,6.371949463E0,-6.539151764E0,5.688171387E-2,9.130469937E0
4.917741875E0,6.010451202E0,-6.517895966E0,-4.331991577E-1,8.876719720E0
4.927799875E0,5.871839447E0,-6.622827759E0,-9.078620911E-1,8.897446802E0
4.937857875E0,5.751639404E0,-6.529272308E0,-1.393601990E0,8.812200589E0
4.947914875E0,5.455704803E0,-6.360124054E0,-1.849254456E0,8.581120843E0
4.957972875E0,5.257367249E0,-6.384074249E0,-2.202519836E0,8.558469959E0
4.968029875E0,5.342390442E0,-6.550977173E0,-2.424957275E0,8.794137555E0
4.978087875E0,5.627248077E0,-6.479875031E0,-2.340832214E0,8.895740373E0
4.988145875E0,6.116131439E0,-6.197113037E0,-2.000290375E0,8.933780575E0
4.998202875E0,6.573131104E0,-6.070775757E0,-1.565594330E0,9.083581694E0
5.008260875E0,6.674470367E0,-6.195017395E0,-1.115031281E0,9.174425866E0
5.018317875E0,6.468498688E0,-6.359225922E0,-5.504054260E-1,9.087583602E0
5.028375875E0,6.300697632E0,-6.439608765E0,7.963439941E-2,9.009644462E0
5.038432875E0,6.490053864E0,-6.646927643E0,6.252497864E-1,9.310928178E0
5.048490875E0,7.396269379E0,-6.855743408E0,8.861572266E-1,1.012379835E1
5.058548875E0,8.142617340E0,-6.456523590E0,1.096918945E0,1.044950454E1
5.068605875E0,8.190667419E0,-5.739065552E0,1.221010895E0,1.007545402E1
5.078663875E0,8.293204193E0,-5.258864136E0,1.189127197E0,9.891759767E0
5.088720875E0,8.512947235E0,-5.153632965E0,1.195264435E0,1.002291676E1
5.098778875E0,8.399483185E0,-5.411995697E0,1.300345917E0,1.007630462E1
5.108836875E0,7.938741302E0,-5.843248901E0,1.377884674E0,9.953177250E0
5.118893875E0,7.296277313E0,-6.131848755E0,1.231788483E0,9.610022614E0
5.128951875E0,6.710395660E0,-6.287375336E0,6.530918884E-1,9.218840900E0
5.139008875E0,6.279292145E0,-6.181246033E0,1.044827271E-1,8.811823250E0
5.149066875E0,6.278992767E0,-5.843398590E0,-2.692900085E-1,8.581583442E0
5.159123875E0,6.598877563E0,-5.052144012E0,-4.721182251E-1,8.324196048E0
5.169181875E0,6.794670410E0,-3.913312225E0,-5.408253479E-1,7.859646978E0
5.179239875E0,7.054530029E0,-2.605182495E0,-5.728587341E-1,7.541984944E0
5.189296875E0,7.039710846E0,-1.258283386E0,-6.783892822E-1,7.183384849E0
5.199354875E0,6.414011993E0,-7.544311523E-2,-6.833290100E-1,6.450750348E0
5.209411875E0,5.637726288E0,1.010548553E0,-6.735992432E-3,5.727583386E0
5.219469875E0,4.943020935E0,2.192341003E0,7.689509583E-1,5.461785479E0
5.229527875E0,4.712949371E0,3.217409363E0,9.346563721E-1,5.782490581E0
5.239584875E0,5.538482666E0,4.181554413E0,7.259902954E-1,6.977624915E0
5.249642875E0,6.549180908E0,5.268743591E0,1.508862305E-1,8.406794648E0
5.259699875E0,6.590794373E0,6.070027313E0,2.993774414E-4,8.960122886E0
5.269757875E0,6.427783356E0,6.339317322E0,6.718029785E-1,9.052881432E0
5.279814875E0,6.630012817E0,6.461163940E0,1.112785950E0,9.324269515E0
5.289872875E0,6.519093475E0,6.335724792E0,7.725434875E-1,9.123421059E0
5.299930875E0,5.720354462E0,6.082301788E0,5.754034424E-1,8.369464698E0
5.309987875E0,5.192102966E0,5.350174255E0,4.537065125E-1,7.469146362E0
5.320045875E0,5.144501953E0,4.151766357E0,2.380050659E-1,6.615112293E0
5.330102875E0,5.562732239E0,3.532803497E0,1.835183716E-1,6.592296224E0
5.340160875E0,6.991810455E0,2.763553162E0,4.745132446E-2,7.518303741E0
5.350218875E0,9.920470276E0,2.101779327E0,-1.826202393E-2,1.014068737E1
5.360275875E0,1.343381424E1,1.931882629E0,1.362167358E-1,1.357269651E1
5.370333875E0,1.697425186E1,1.217717743E0,-1.365310822E0,1.707255506E1
5.380390875E0,2.117047577E1,-4.824467468E-1,-3.388503571E0,2.144536676E1
5.390448875E0,2.550082077E1,-2.619552612E0,-5.392685852E0,2.619608705E1
5.400506875E0,2.995810181E1,-4.706961823E0,-6.553372192E0,3.102563522E1
5.410563875E0,3.569821518E1,-7.047494659E0,-5.164859619E0,3.675194584E1
5.420621875E0,4.026806213E1,-9.426048431E0,-2.840942230E0,4.145404890E1
5.430678875E0,4.259826645E1,-1.260738281E1,-2.586621094E-1,4.442550295E1
5.440736875E0,4.329731277E1,-1.642055328E1,2.874173126E0,4.639561116E1
5.450793875E0,4.260200867E1,-2.017938675E1,5.289999390E0,4.743546021E1
5.460851875E0,4.254363007E1,-2.418356003E1,6.519692230E0,4.936913430E1
5.470909875E0,4.271771805E1,-2.731669464E1,5.191354523E0,5.097014227E1
5.480966875E0,3.969220963E1,-2.861090332E1,8.940907288E-1,4.893725260E1
5.491024875E0,3.483017029E1,-2.887091263E1,-2.892435150E0,4.533251084E1
5.501081875E0,3.221585678E1,-2.743210464E1,-4.540957031E0,4.255587015E1
5.511139875E0,3.188504471E1,-2.418415878E1,-4.057612152E0,4.022429401E1
5.521197875E0,3.147804108E1,-1.959604980E1,-2.819536743E0,3.718631503E1
5.531254875E0,3.150663162E1,-1.548305283E1,-8.949888611E-1,3.511685872E1
5.541312875E0,2.873529465E1,-1.190609116E1,1.242566071E0,3.112902401E1
5.551369875E0,2.347672989E1,-8.638685760E0,1.219963074E0,2.504539973E1
5.561427875E0,1.610785355E1,-6.065237274E0,-1.202898560E0,1.725389852E1
5.571484875E0,7.640860748E0,-4.076173553E0,-4.432732086E0,9.728671932E0
5.581542875E0,-3.254232788E-1,-2.608475647E0,-7.375312958E0,7.829769265E0
5.591600875E0,-6.418802032E0,-1.017284546E0,-9.678124237E0,1.165770029E1
5.601657875E0,-1.079764618E1,-8.711883545E-2,-1.006162674E1,1.475916953E1
5.611715875E0,-1.462458801E1,-4.161346436E-2,-6.975195007E0,1.620289022E1
5.621772875E0,-1.659973068E1,-3.996688843E-1,-3.123554535E0,1.689578015E1
5.631830875E0,-1.749606674E1,-8.348139954E-1,-8.696914673E-1,1.753754912E1
5.641888875E0,-1.712364120E1,-1.089733887E0,8.161029053E-1,1.717767831E1
5.651945875E0,-1.467248840E1,-1.204694824E0,2.128872986E0,1.487498927E1
5.662003875E0,-1.209664490E1,-1.016835480E0,2.610421600E0,1.241680607E1
5.672060833E0,-9.514364777E0,-9.084608459E-1,2.703827362E0,9.932729767E0
5.682118833E0,-6.705904999E0,-4.296066284E-1,2.788850555E0,7.275397661E0
5.692176833E0,-3.529959412E0,3.885919189E-1,2.616858215E0,4.411299587E0
5.702233833E0,-9.318122864E-1,9.892927551E-1,2.589764557E0,2.924697378E0
5.712291833E0,5.146298218E-1,1.257534943E0,2.321821747E0,2.690184791E0
5.722348833E0,1.576970673E0,1.396895142E0,2.389331360E0,3.185444535E0
5.732406833E0,2.523003387E0,1.440304871E0,2.843337250E0,4.065045009E0
5.742463833E0,3.288661194E0,1.224304047E0,3.138373718E0,4.707823536E0
5.752521833E0,3.588936768E0,6.881190491E-1,2.929557953E0,4.683618766E0
5.762579833E0,3.146756287E0,2.555186462E-1,2.652484131E0,4.123473896E0
5.772636833E0,2.334694977E0,-4.637356567E-1,2.760260010E0,3.644843853E0
5.782694833E0,1.512305145E0,-1.321452026E0,2.923420715E0,3.546786008E0
5.792751833E0,5.212161255E-1,-1.806144104E0,3.024909668E0,3.561446514E0
5.802809833E0,-4.854405212E-1,-1.748364258E0,3.190315704E0,3.670224022E0
5.812867833E0,-1.398990784E0,-1.799707489E0,2.957549744E0,3.734062499E0
5.822924833E0,-2.167642365E0,-2.297721863E0,1.994302826E0,3.735698454E0
5.832982833E0,-2.333347778E0,-2.214045868E0,9.057664490E-1,3.341694753E0
5.843039833E0,-1.485061798E0,-1.753453674E0,-1.353186035E-1,2.301807867E0
5.853097833E0,4.086502075E-2,-1.527573395E0,-1.002615051E0,1.827672664E0
5.863155833E0,1.346899109E0,-1.326242065E0,-1.751208344E0,2.576778199E0
5.873212833E0,1.757644958E0,-1.300944672E0,-2.103874969E0,3.034478988E0
5.883270833E0,1.051114197E0,-1.251697083E0,-2.176473999E0,2.721879077E0
5.893327833E0,-2.516267395E-1,-1.284628601E0,-2.182311859E0,2.544812706E0
5.903385833E0,-1.820813599E0,-1.536554718E0,-2.146236877E0,3.206664201E0
5.913442833E0,-3.216960297E0,-1.804198151E0,-2.031126251E0,4.210633962E0
5.923500833E0,-4.102518768E0,-2.161355438E0,-1.812131653E0,4.978547851E0
5.933558833E0,-4.769531708E0,-2.618804169E0,-1.602118378E0,5.672155788E0
5.943615833E0,-5.079986115E0,-2.926713867E0,-1.584754486E0,6.073167194E0
5.953673833E0,-4.895120544E0,-3.118764496E0,-1.455423431E0,5.983907961E0
5.963730833E0,-4.618346100E0,-3.297642517E0,-1.103355560E0,5.781086434E0
5.973788833E0,-4.384232941E0,-3.374432831E0,-8.023315430E-1,5.590351627E0
5.983846833E0,-3.943848724E0,-3.347638550E0,-4.200265503E-1,5.190091418E0
5.993903833E0,-3.279081116E0,-3.001707916E0,4.625381470E-2,4.445757842E0
6.003961833E0,-2.494562531E0,-2.371368713E0,4.589456177E-1,3.472299364E0
6.014018833E0,-1.779050446E0,-1.679058380E0,1.022823029E0,2.651494763E0
6.024076833E0,-1.107546844E0,-1.390907593E0,1.373244324E0,2.246571592E0
6.034133833E0,-3.541635132E-1,-1.192120972E0,1.469943237E0,1.925439515E0
6.044191833E0,5.046006775E-1,-6.021977234E-1,1.366059265E0,1.575874950E0
6.054249833E0,1.480271759E0,-7.903564453E-2,8.234376526E-1,1.695730132E0
6.064306833E0,1.865271149E0,-2.402503967E-1,3.468287659E-1,1.912392978E0
6.074364833E0,1.194366302E0,-6.870712280E-1,1.047821045E-3,1.377889268E0
6.084421833E0,8.680448914E-1,-1.133742371E0,-6.881190491E-1,1.585049375E0
6.094479833E0,1.522783356E0,-2.047142944E0,-1.404229889E0,2.912305781E0
6.104537833E0,3.063828735E0,-3.781286774E0,-1.867965546E0,5.212913913E0
6.114594833E0,6.346801758E0,-6.199058990E0,-2.514770508E0,9.221404211E0
6.124652833E0,9.840686188E0,-9.180858307E0,-3.369642792E0,1.387377946E1
6.134709833E0,1.297920959E1,-1.260244308E1,-3.846251678E0,1.849527251E1
6.144767833E0,1.688967773E1,-1.653596329E1,-4.755011902E0,2.411035947E1
6.154824833E0,2.302137680E1,-1.996248779E1,-7.042704620E0,3.127434087E1
6.164882833E0,3.069726471E1,-2.253937912E1,-9.450896759E0,3.923856676E1
6.174940833E0,3.881338715E1,-2.204301132E1,-1.092173813E1,4.595277721E1
6.184997833E0,4.570355896E1,-1.877590530E1,-1.053329590E1,5.052029537E1
6.195055833E0,5.024706070E1,-1.402972504E1,-7.919431458E0,5.276663423E1
6.205112833E0,4.926809647E1,-9.551936646E0,-3.894152069E0,5.033636105E1
6.215170833E0,4.448434433E1,-7.772137756E0,1.536105652E0,4.518431848E1
6.225228833E0,3.897235657E1,-7.805069275E0,6.309529266E0,4.024392926E1
6.235285833E0,3.321218491E1,-7.290888519E0,9.281748505E0,3.524708693E1
6.245343833E0,2.837394608E1,-7.064559174E0,1.044812302E1,3.105079849E1
6.255400833E0,2.409554306E1,-7.368127899E0,9.488318939E0,2.692420287E1
6.265458833E0,2.089594666E1,-7.204518127E0,6.786587219E0,2.312149290E1
6.275516833E0,1.892544434E1,-5.875132599E0,3.073259125E0,2.005329270E1
6.285573833E0,1.788795181E1,-3.561843109E0,-9.987231445E-1,1.826644449E1
6.295631833E0,1.784813461E1,-1.067879333E0,-4.383035431E0,1.840943440E1
6.305688833E0,1.796309555E1,1.377435608E0,-5.979615326E0,1.898225303E1
6.315746833E0,1.836755447E1,3.448229370E0,-5.953569489E0,1.961383014E1
6.325803833E0,1.793824722E1,4.967719574E0,-3.852837982E0,1.900798021E1
6.335861833E0,1.672966049E1,6.106701050E0,-7.932005310E-1,1.782701615E1
6.345919833E0,1.626278137E1,6.874903564E0,1.973346405E0,1.776616033E1
6.355976833E0,1.644525192E1,7.481442261E0,3.799548798E0,1.846225501E1
6.366034833E0,1.637684418E1,7.722141724E0,4.075874176E0,1.855923620E1
6.376091833E0,1.604378677E1,7.132966919E0,3.180136871E0,1.784364261E1
6.386149833E0,1.532378403E1,6.465804291E0,1.700613556E0,1.671876396E1
6.396207833E0,1.388093445E1,5.506449280E0,-2.993774414E-4,1.493322888E1
6.406264833E0,1.213466583E1,4.146527252E0,-1.701661377E0,1.293597521E1
6.416322833E0,1.028136978E1,2.873574371E0,-3.026556244E0,1.109612711E1
6.426379833E0,8.372239838E0,1.375190277E0,-4.263434143E0,9.495389349E0
6.436437833E0,6.531667328E0,-9.580078125E-3,-4.455035706E0,7.906333727E0
6.446495833E0,4.861440582E0,-8.421487427E-1,-3.942052460E0,6.315266949E0
6.456552833E0,3.714974670E0,-1.359922028E0,-3.321892090E0,5.165790528E0
6.466610833E0,3.203039246E0,-1.943708038E0,-2.199825439E0,4.344731673E0
6.476667833E0,2.839295654E0,-2.499202881E0,-4.713697815E-1,3.811798043E0
6.486725833E0,2.499951324E0,-3.256178741E0,8.940907288E-1,4.201411055E0
6.496782833E0,2.399061127E0,-4.226461029E0,1.377285919E0,5.051275445E0
6.506840833E0,2.405647430E0,-5.241949310E0,1.263522491E0,5.904376446E0
6.516898833E0,2.293380890E0,-6.174360352E0,3.727249146E-1,6.597063401E0
6.526955833E0,2.341880035E0,-7.300468597E0,-8.931925964E-1,7.718745809E0
6.537013833E0,2.625240784E0,-8.631949768E0,-2.239642639E0,9.296152168E0
6.547070833E0,2.786305847E0,-1.017988083E1,-3.409609680E0,1.109138910E1
6.557128833E0,2.632276154E0,-1.171853119E1,-3.993096313E0,1.265692179E1
6.567186833E0,2.947221222E0,-1.259735367E1,-3.719465332E0,1.346156955E1
6.577243833E0,3.610042877E0,-1.271934998E1,-2.377056885E0,1.343371404E1
6.587301833E0,4.012106781E0,-1.241248810E1,-4.691244507E-1,1.305323482E1
6.597358833E0,4.244273987E0,-1.212328949E1,1.298998718E0,1.291028301E1
6.607416833E0,4.654570770E0,-1.236773117E1,2.878364410E0,1.352445138E1
6.617474833E0,5.074297943E0,-1.304522232E1,4.077221375E0,1.457909665E1
6.627531833E0,5.437891846E0,-1.375818970E1,4.635709991E0,1.550316931E1
6.637589833E0,5.804629211E0,-1.467548218E1,4.323309631E0,1.636320579E1
6.647646833E0,5.387446747E0,-1.573542801E1,3.307671661E0,1.695785862E1
6.657704833E0,4.381239166E0,-1.557840454E1,1.540296936E0,1.625590537E1
6.667761833E0,3.860921173E0,-1.465272949E1,-3.014730835E-1,1.515585959E1
6.677819708E0,3.940705261E0,-1.398900970E1,-1.593885498E0,1.462060264E1
6.687877708E0,4.217030640E0,-1.349174377E1,-2.603685608E0,1.437322776E1
6.697934708E0,4.582121429E0,-1.312620392E1,-3.113675079E0,1.424738708E1
6.707992708E0,5.498815155E0,-1.273177414E1,-2.825823669E0,1.415345612E1
6.718049708E0,6.424041138E0,-1.255663834E1,-2.318378906E0,1.429378717E1
6.728107708E0,6.958878937E0,-1.279000305E1,-1.719025269E0,1.466169233E1
6.738165708E0,7.638166351E0,-1.321407120E1,-8.187973022E-1,1.528475357E1
6.748222708E0,8.284971313E0,-1.338157288E1,3.264710999E-1,1.574210360E1
6.758280708E0,8.835975494E0,-1.299956726E1,1.163231049E0,1.576122833E1
6.768337708E0,9.844877472E0,-1.238015533E1,1.463506622E0,1.588495232E1
6.778395708E0,1.077908478E1,-1.214140182E1,1.723366241E0,1.632704193E1
6.788453708E0,1.130748596E1,-1.179232773E1,1.830543365E0,1.643986378E1
6.798510708E0,1.205727676E1,-1.088027435E1,1.813927917E0,1.634162255E1
6.808568708E0,1.273042694E1,-1.003468277E1,1.623673553E0,1.629094669E1
6.818625708E0,1.299807037E1,-9.602381744E0,1.484612732E0,1.622835924E1
6.828683708E0,1.301438644E1,-9.454189911E0,1.528172150E0,1.615831896E1
6.838740708E0,1.284359161E1,-9.111552429E0,1.639690247E0,1.583246087E1
6.848798708E0,1.288730072E1,-8.571026459E0,1.692380676E0,1.556949475E1
6.858856708E0,1.337917786E1,-8.171507263E0,1.641336823E0,1.576292859E1
6.868913708E0,1.414378784E1,-7.549999695E0,1.400936737E0,1.609384521E1
6.878971708E0,1.516855682E1,-6.554270325E0,6.201603699E-1,1.653566371E1
6.889028708E0,1.586011871E1,-5.829477539E0,-1.462458801E-1,1.689815262E1
6.899086708E0,1.559172684E1,-5.598507843E0,-9.556127930E-1,1.659392755E1
6.909144708E0,1.486169495E1,-5.265001373E0,-1.737436981E0,1.586218470E1
6.919201708E0,1.408286453E1,-4.578977966E0,-2.210303650E0,1.497262685E1
6.929259708E0,1.327065353E1,-3.847149811E0,-2.491119690E0,1.403981781E1
6.939316708E0,1.298205368E1,-3.088527374E0,-2.503843231E0,1.357725856E1
6.949374708E0,1.328876587E1,-2.175575867E0,-2.157463531E0,1.363741462E1
6.959431708E0,1.336316116E1,-1.250200195E0,-1.719474335E0,1.353121091E1
6.969489708E0,1.275048523E1,-7.114704895E-1,-1.219963074E0,1.282845952E1
6.979547708E0,1.166973267E1,-3.227288818E-1,-6.450086975E-1,1.169199943E1
6.989604708E0,1.034708313E1,2.002835083E-1,-2.035766602E-1,1.035102344E1
6.999662708E0,8.732989655E0,9.216334534E-1,-2.095642090E-3,8.781487398E0
7.009719708E0,7.241491241E0,1.703757019E0,-7.080276489E-2,7.439556197E0
7.019777708E0,6.550378418E0,2.503244476E0,-5.273533630E-1,7.032196804E0
7.029835708E0,6.342909851E0,3.258424072E0,-1.257684631E0,7.240967024E0
7.039892708E0,5.460494843E0,3.886218567E0,-1.970652008E0,6.985926425E0
7.049950708E0,4.246519318E0,4.461921387E0,-2.439776459E0,6.625268141E0
7.060007708E0,3.438499603E0,5.028792572E0,-2.622247009E0,6.632361090E0
7.070065708E0,3.715274048E0,5.756579132E0,-1.664388885E0,7.050649255E0
7.080123708E0,4.035607910E0,6.629563751E0,2.395019531E-1,7.764960265E0
7.090180708E0,4.674778748E0,7.387288055E0,2.357447662E0,9.054454187E0
7.100238708E0,5.542224884E0,8.286468201E0,3.106490021E0,1.044184333E1
7.110295708E0,5.852529602E0,8.890611877E0,2.691552887E0,1.097905002E1
7.120353708E0,5.603297882E0,8.856632538E0,1.491049347E0,1.058584504E1
7.130411708E0,3.531605988E0,8.120613098E0,1.231938171E-1,8.856171558E0
7.140468708E0,2.978655853E0,7.222480774E0,1.527423706E0,7.960505160E0
7.150526708E0,4.119283905E0,7.685318298E0,3.309168549E0,9.326479171E0
7.160583708E0,4.908891907E0,8.880582733E0,4.413122864E0,1.106515354E1
7.170641708E0,9.415121155E0,8.645721130E0,6.452182617E0,1.431864731E1
7.180698708E0,1.510329254E1,9.624984741E0,6.426436157E0,1.902758152E1
7.190756708E0,1.941492645E1,9.428593140E0,3.910767517E0,2.193471769E1
7.200814708E0,2.421858719E1,8.805438995E0,2.175725555E0,2.586135153E1
7.210871708E0,2.822620331E1,7.055577850E0,1.301244049E0,2.912375264E1
7.220929708E0,3.225672180E1,3.836821289E0,2.111808472E0,3.255268090E1
7.230986708E0,3.932128098E1,1.408570862E0,3.948040009E0,3.954407957E1
7.241044708E0,4.753230606E1,-4.683760071E-1,4.646936646E0,4.776121351E1
7.251102708E0,5.508185669E1,-2.170187073E0,5.663921814E0,5.541480541E1
7.261159708E0,6.346128159E1,-4.265679474E0,8.162076874E0,6.412604604E1
7.271217708E0,7.008710312E1,-8.090076599E0,9.782457275E0,7.122743736E1
7.281274708E0,7.338579346E1,-1.266052231E1,8.856782227E0,7.499470713E1
7.291332708E0,7.777376862E1,-1.632310593E1,8.389603729E0,7.990987625E1
7.301390708E0,8.881795212E1,-1.936463104E1,1.002600082E1,9.145566274E1
7.311447708E0,1.025740462E2,-2.356444748E1,1.077624069E1,1.057962452E2
7.321505708E0,1.155722662E2,-3.020912979E1,1.020113663E1,1.198899639E2
7.331562708E0,1.230394881E2,-4.157155151E1,9.076525269E0,1.301894498E2
7.341620708E0,1.229025229E2,-5.463877808E1,8.946894836E0,1.347978973E2
7.351677708E0,1.189152644E2,-6.469561478E1,9.695039063E0,1.357216139E2
7.361735708E0,1.115565669E2,-6.871730164E1,1.052491333E1,1.314446993E2
7.371793708E0,9.872390259E1,-6.911726990E1,1.089659042E1,1.210055438E2
7.381850708E0,8.449658844E1,-6.702432220E1,1.068972061E1,1.083799029E2
7.391908708E0,7.096353058E1,-6.371455490E1,1.069525909E1,9.596747233E1
7.401965708E0,5.764377914E1,-6.058441406E1,1.269899231E1,8.458451931E1
7.412023708E0,4.438959137E1,-5.884308517E1,1.287218216E1,7.482404405E1
7.422081708E0,2.866868317E1,-5.855463501E1,8.368048553E0,6.573098898E1
7.432138708E0,1.352078339E1,-5.592565201E1,2.020348663E0,5.757231926E1
7.442196708E0,3.366349640E0,-5.255556015E1,-2.991529083E0,5.274816072E1
7.452253708E0,-3.389102325E0,-4.969186523E1,-3.858975220E0,4.995657289E1
7.462311708E0,-5.615722046E0,-4.715793457E1,2.797682190E-1,4.749195087E1
7.472368708E0,-6.687193909E0,-4.548725876E1,4.447251892E0,4.619077095E1
7.482426708E0,-1.074151291E1,-4.307233063E1,5.412295074E0,4.472022700E1
7.492484708E0,-1.610845230E1,-4.031985443E1,3.900289307E0,4.359340723E1
7.502541708E0,-1.764605484E1,-3.679648132E1,4.259542236E0,4.103057384E1
7.512599708E0,-1.656994263E1,-3.271896057E1,6.617438965E0,3.726773240E1
7.522656708E0,-1.651246216E1,-2.963073257E1,7.595954132E0,3.476118868E1
7.532714708E0,-1.645528107E1,-2.736205032E1,7.237749023E0,3.273901470E1
7.542771708E0,-1.554786804E1,-2.521955566E1,7.286397858E0,3.050989646E1
7.552829708E0,-1.441801758E1,-2.335862549E1,7.335944824E0,2.841338949E1
7.562887708E0,-1.477143265E1,-2.116508698E1,6.219716034E0,2.654884172E1
7.572944708E0,-1.395338379E1,-1.790112442E1,4.999004517E0,2.324085241E1
7.583002708E0,-1.252250931E1,-1.444690750E1,4.085753632E0,1.955044139E1
7.593059708E0,-1.085916824E1,-1.166868484E1,3.317700806E0,1.628148886E1
7.603117708E0,-8.757089539E0,-9.119336243E0,2.559527435E0,1.289961594E1
7.613175708E0,-6.103258209E0,-7.070247345E0,1.838776245E0,9.519414707E0
7.623232708E0,-3.453917542E0,-5.505102081E0,1.572180634E0,6.686362782E0
7.633290708E0,-9.557624817E-1,-3.942651215E0,1.947001190E0,4.499866015E0
7.643347708E0,1.262624359E0,-2.789449310E0,3.241509247E0,4.458994273E0
7.653405708E0,2.945574646E0,-1.746418304E0,4.694837036E0,5.811013826E0
7.663463708E0,4.638254700E0,-4.800517273E-1,5.398823090E0,7.133803128E0
7.673521083E0,7.895181885E0,1.321601715E0,5.265600128E0,9.581600743E0
7.683579083E0,1.106184677E1,3.922592926E0,4.008214874E0,1.240229720E1
7.693636083E0,1.110959747E1,6.170019379E0,1.272503815E0,1.277151366E1
7.703694083E0,8.454269257E0,6.999893646E0,-1.859582977E0,1.113244037E1
7.713752083E0,5.810317383E0,6.311924286E0,-4.241729279E0,9.570394117E0
7.723809083E0,3.648662567E0,5.842650146E0,-5.061724091E0,8.548119678E0
7.733867083E0,2.226919098E0,5.330714722E0,-5.029241638E0,7.659566539E0
7.743924083E0,8.330177307E-1,4.193080444E0,-4.787494354E0,6.418406683E0
7.753982083E0,-1.445693665E0,3.166215820E0,-3.248245239E0,4.760887515E0
7.764039083E0,-2.793939972E0,3.007096710E0,-1.169967041E0,4.268202674E0
7.774097083E0,-1.938917999E0,3.010090485E0,2.392025757E-1,3.588490714E0
7.784155083E0,6.375242615E-1,3.657793579E0,9.412426758E-1,3.830382334E0
7.794212083E0,2.777174835E0,5.274132385E0,6.794371033E-1,5.999233889E0
7.804270083E0,3.707639923E0,6.505771179E0,-3.637435913E-1,7.496930161E0
7.814327083E0,3.690276031E0,6.760840759E0,-1.257534943E0,7.804389732E0
7.824385083E0,3.295097809E0,6.611601105E0,-1.688937836E0,7.577826189E0
7.834443083E0,3.067421265E0,6.369853821E0,-1.704056396E0,7.272408069E0
7.844500083E0,2.759212189E0,5.806126099E0,-1.368005219E0,6.572350451E0
7.854558083E0,2.093995514E0,4.885091400E0,-7.801776123E-1,5.371928174E0
7.864615083E0,1.247655487E0,3.902384949E0,1.302291870E-2,4.097001599E0
7.874673083E0,1.323248291E-1,3.135529633E0,8.448431396E-1,3.250048595E0
7.884731083E0,-7.029382324E-1,2.439327393E0,1.491947479E0,2.944545392E0
7.894788083E0,-1.063688049E0,1.779798889E0,1.606309662E0,2.622850945E0
7.904846083E0,-1.266216888E0,1.206491089E0,1.439706116E0,2.265321093E0
7.914903083E0,-1.023571472E0,8.996292114E-1,9.415420532E-1,1.656361287E0
7.924961083E0,3.912863159E-1,1.155297546E0,1.020877075E-1,1.224025858E0
7.935019083E0,1.222956848E0,1.527723083E0,-9.440867615E-1,2.172754263E0
7.945076083E0,6.366261292E-1,1.149759064E0,-2.011367340E0,2.402672951E0
7.955134083E0,-3.921844482E-1,4.692741394E-1,-3.161425781E0,3.220037240E0
7.965191083E0,-1.783092041E0,-3.285667419E-1,-3.904929657E0,4.305327973E0
7.975249083E0,-3.113675079E0,-1.340462494E0,-3.651356964E0,4.982390980E0
7.985306083E0,-4.779860229E0,-2.401456146E0,-2.853067017E0,6.062511595E0
7.995364083E0,-6.390959930E0,-3.396437073E0,-1.839524689E0,7.467530027E0
8.005422083E0,-7.213050385E0,-4.560117188E0,-4.402345276E-1,8.544973438E0
8.015479083E0,-7.376660156E0,-5.281467133E0,1.178050232E0,9.148596203E0
8.025537083E0,-6.445446625E0,-5.224136353E0,2.792293396E0,8.753986819E0
8.035594083E0,-4.592599640E0,-4.116439819E0,3.141068115E0,6.921225119E0
8.045652083E0,-3.566034393E0,-3.093018036E0,1.438209229E0,4.934755075E0
8.055710083E0,-4.384682007E0,-2.863694916E0,-1.288520508E0,5.393187367E0
8.065767083E0,-4.697381744E0,-3.314407654E0,-4.147724762E0,7.089027722E0
8.075825083E0,-4.918471985E0,-5.676795044E0,-6.397995300E0,9.866697142E0
8.085882083E0,-6.969357147E0,-1.002345612E1,-8.555758209E0,1.490780366E1
8.095940083E0,-4.283193054E0,-1.430440384E1,-7.018754425E0,1.649923106E1
8.105997083E0,6.183790741E0,-1.455363556E1,-2.574196930E0,1.602105071E1
8.116055083E0,2.108215942E1,-1.235680389E1,1.830094299E0,2.450504629E1
8.126113083E0,3.813424942E1,-9.551936646E0,6.007457428E0,3.976870651E1
8.136170083E0,5.060197266E1,-4.450095978E0,8.534053345E0,5.150915508E1
8.146228083E0,5.675522690E1,2.567161560E0,8.339907074E0,5.742212247E1
8.156286083E0,6.008984253E1,7.684569855E0,6.004164276E0,6.087603615E1
8.166343083E0,5.775335129E1,9.426198120E0,3.616928558E0,5.862921599E1
8.176401083E0,5.207550842E1,1.014620087E1,3.378175049E0,5.316216734E1
8.186458083E0,4.608751053E1,1.098700241E1,3.192710724E0,4.748648492E1
8.196516083E0,4.330060593E1,1.117980148E1,1.084195404E0,4.473372234E1
8.206573083E0,3.947635849E1,1.080063995E1,-2.401007080E0,4.099757966E1
8.216631083E0,3.569237732E1,1.003917343E1,-5.686674500E0,3.751091933E1
8.226689083E0,3.152324707E1,9.825417938E0,-8.324040070E0,3.405207169E1
8.236746083E0,2.709021561E1,9.126670990E0,-1.024858795E1,3.036790180E1
8.246804083E0,2.319980576E1,7.370223541E0,-1.060858932E1,2.655359391E1
8.256861083E0,1.968930588E1,5.331762543E0,-8.549620972E0,2.211769600E1
8.266919083E0,1.647384247E1,3.335513763E0,-5.399870911E0,1.765422736E1
8.276977083E0,1.320673645E1,7.779322815E-1,-2.543361053E0,1.347188746E1
8.287034083E0,1.033076706E1,-2.495909729E0,-7.945477295E-1,1.065765544E1
8.297092083E0,8.642877045E0,-4.928800507E0,-7.047344971E-1,9.974419720E0
8.307149083E0,7.870034180E0,-5.975124664E0,-1.490151215E0,9.993002721E0
8.317207083E0,8.268505554E0,-7.100185089E0,-2.931354218E0,1.128599353E1
8.327265083E0,1.303728882E1,-7.042105865E0,-4.486170959E0,1.548185663E1
8.337322083E0,1.722438171E1,-5.526806946E0,-5.807024231E0,1.899859076E1
8.347380083E0,1.719534210E1,-5.123096466E0,-5.778134308E0,1.884974120E1
8.357437083E0,1.496512985E1,-5.890849915E0,-4.673730927E0,1.674816363E1
8.367495083E0,1.283371216E1,-6.289620667E0,-2.094444580E0,1.444472893E1
8.377552083E0,1.174023605E1,-7.094945984E0,3.912863159E-1,1.372313762E1
8.387610083E0,1.116318604E1,-8.683592377E0,2.763403473E0,1.441033996E1
8.397668083E0,1.204949295E1,-9.800569611E0,5.241350555E0,1.639247390E1
8.407725083E0,1.353680008E1,-9.826166382E0,6.378386078E0,1.790201975E1
8.417783083E0,1.471574844E1,-9.368867340E0,5.542224884E0,1.830423951E1
8.427840083E0,1.538770111E1,-9.385482788E0,3.326682129E0,1.832854186E1
8.437898083E0,1.484073853E1,-9.315129089E0,5.212161255E-1,1.752971238E1
8.447956083E0,1.408391235E1,-8.657995605E0,-2.016007690E0,1.665478196E1
8.458013083E0,1.366747833E1,-8.967102814E0,-3.545377350E0,1.672658355E1
8.468071083E0,1.362017670E1,-9.500593414E0,-2.570754089E0,1.680414428E1
8.478128083E0,1.246098724E1,-8.776249695E0,-4.879852295E-1,1.524916035E1
8.488186083E0,1.177436508E1,-8.984616394E0,3.905378723E-1,1.481592132E1
8.498244083E0,1.177391602E1,-9.780511322E0,4.028123474E-1,1.531162166E1
8.508301083E0,1.153291718E1,-9.823771362E0,2.395019531E-1,1.515163435E1
8.518359083E0,1.195234497E1,-9.341025238E0,1.469943237E-1,1.517019809E1
8.528416083E0,1.287906784E1,-8.924291840E0,-2.390528870E-1,1.567068982E1
8.538474083E0,1.328083237E1,-8.476423187E0,-6.515950012E-1,1.576879306E1
8.548531083E0,1.312560516E1,-8.077053680E0,-1.091679840E0,1.545030977E1
8.558589083E0,1.294448181E1,-8.187224579E0,-3.080593872E-1,1.531943720E1
8.568647083E0,1.263447647E1,-8.126450958E0,9.837542725E-1,1.505446689E1
8.578704083E0,1.214783844E1,-7.785609741E0,1.171463928E0,1.447611915E1
8.588762083E0,1.212179260E1,-7.376809845E0,9.386979675E-1,1.422098215E1
8.598819083E0,1.282592834E1,-7.265441437E0,7.833210754E-1,1.476159439E1
8.608877083E0,1.337049591E1,-6.653813324E0,1.667532349E-1,1.493556826E1
8.618935083E0,1.280033157E1,-5.054688721E0,-5.647755432E-1,1.377379170E1
8.628992083E0,1.159354111E1,-3.951183472E0,-8.939410400E-1,1.228092736E1
8.639050083E0,1.025412643E1,-3.428021393E0,-2.386038208E-1,1.081459067E1
8.649107083E0,9.089997253E0,-2.734663239E0,7.655081177E-1,9.523257624E0
8.659165083E0,8.521329803E0,-1.774410095E0,1.357676697E0,8.809363134E0
8.669223083E0,8.328231354E0,-5.641767883E-1,1.373693390E0,8.459596117E0
8.679279708E0,8.547076263E0,5.424719238E-1,7.593708801E-1,8.597873724E0
8.689337708E0,9.207053833E0,1.392404480E0,-3.665876770E-1,9.318960084E0
8.699394708E0,1.069346283E1,2.263742523E0,-1.562001801E0,1.104149116E1
8.709452708E0,1.206086929E1,3.537892914E0,-2.121089172E0,1.274677503E1
8.719510708E0,1.260708344E1,4.846322021E0,-2.581681366E0,1.375101700E1
8.729567708E0,1.206521027E1,5.825885010E0,-3.161874847E0,1.376617912E1
8.739625708E0,1.055754547E1,6.646328888E0,-4.017794952E0,1.310641562E1
8.749682708E0,8.640781403E0,7.871680756E0,-5.059927826E0,1.273692784E1
8.759740708E0,7.390431519E0,9.517657928E0,-5.749543762E0,1.335146224E1
8.769797708E0,6.583309937E0,1.113444580E1,-6.631509705E0,1.453591325E1
8.779855708E0,7.004683685E0,1.207149719E1,-5.979315948E0,1.518350609E1
8.789913708E0,7.864795074E0,1.264944534E1,-3.326831818E0,1.526208633E1
8.799970708E0,8.903934174E0,1.321197556E1,-1.130748596E0,1.597231775E1
8.810028708E0,8.509803772E0,1.285841080E1,4.191284180E-2,1.541937888E1
8.820085708E0,6.975793762E0,1.132694550E1,1.199306030E0,1.335663610E1
8.830143708E0,5.942492523E0,1.030846344E1,2.907104645E0,1.224862822E1
8.840201708E0,6.143823853E0,1.043390259E1,4.212989044E0,1.282038110E1
8.850258708E0,6.411616974E0,1.059152481E1,4.117487640E0,1.304771760E1
8.860316708E0,8.533005524E0,1.115839600E1,3.894301758E0,1.457695341E1
8.870373708E0,1.366837646E1,1.218945190E1,2.735561371E0,1.851730404E1
8.880431708E0,1.941507614E1,1.284254379E1,2.564167786E-1,2.327964480E1
8.890489708E0,2.439776459E1,1.270288422E1,-2.015558624E0,2.758036731E1
8.900546708E0,2.841002106E1,1.162467636E1,-4.066892853E0,3.096452833E1
8.910604708E0,3.059308136E1,9.678423615E0,-5.847140808E0,3.261590971E1
8.920661708E0,3.240416519E1,6.737339630E0,-4.730612640E0,3.343352155E1
8.930719708E0,3.485142609E1,3.772904205E0,-4.535568237E-1,3.505798654E1
8.940777708E0,3.931364685E1,6.845265198E-1,6.268813934E0,3.981619562E1
8.950834708E0,4.701168869E1,2.868035889E-1,1.398227371E1,4.904778393E1
8.960892708E0,6.141608459E1,3.357518005E-1,1.799932022E1,6.400018519E1
8.970949708E0,7.544625870E1,3.308120728E-1,1.491154129E1,7.690644610E1
8.981007708E0,8.415230438E1,-2.019450531E0,9.737700348E0,8.473789779E1
8.991065708E0,9.244625702E1,-6.594686279E0,5.138664093E0,9.282352176E1
9.001122708E0,1.032346225E2,-1.134984787E1,1.488804016E0,1.038673330E2
9.011180708E0,1.123593475E2,-1.782478317E1,1.501527557E0,1.137743401E2
9.021237708E0,1.184985310E2,-2.675491287E1,5.104385376E0,1.215885766E2
9.031295708E0,1.200903209E2,-3.525992661E1,1.023197250E1,1.255772306E2
9.041352708E0,1.214821266E2,-4.014157516E1,1.338052505E1,1.286401632E2
9.051410708E0,1.241313176E2,-4.542588638E1,1.557795547E1,1.330968364E2
9.061468708E0,1.224558517E2,-4.937886612E1,1.564636322E1,1.329605834E2
9.071525708E0,1.173668843E2,-5.298711273E1,1.129506180E1,1.292679313E2
9.081583708E0,1.092069031E2,-5.374304077E1,4.841981049E0,1.218109473E2
9.091640708E0,9.656943283E1,-5.344246582E1,-1.141226807E0,1.103768767E2
9.101698708E0,8.224167755E1,-5.391682938E1,-1.112187195E-1,9.833987180E1
9.111756708E0,6.601571960E1,-5.323365005E1,3.225342865E0,8.486636300E1
9.121813708E0,4.747602310E1,-5.206922150E1,3.117117920E0,7.053292154E1
9.131871708E0,2.750889496E1,-5.169904129E1,2.277214508E0,5.860644912E1
9.141928708E0,1.031160690E1,-4.973302963E1,3.678600311E0,5.092382128E1
9.151986708E0,4.667294312E-1,-4.602434189E1,7.861651611E0,4.669329126E1
9.162043708E0,-3.880979462E0,-4.173785568E1,1.211430817E1,4.363332512E1
9.172101708E0,-5.190157013E0,-3.827555557E1,1.354742798E1,4.093273371E1
9.182159708E0,-3.657793579E0,-3.555511276E1,1.146061752E1,3.753520017E1
9.192216708E0,-1.176553345E-1,-3.362652328E1,8.291108551E0,3.463378974E1
9.202274708E0,8.881031799E-1,-3.137355835E1,5.771847382E0,3.191242882E1
9.212331708E0,-3.014281769E0,-2.970497818E1,3.167712708E0,3.002508996E1
9.222389708E0,-8.560248871E0,-2.830987930E1,7.656578064E-1,2.958569517E1
9.232447708E0,-1.209574677E1,-2.642769333E1,-2.275268555E-1,2.906513088E1
9.242504708E0,-1.481768646E1,-2.484653137E1,-1.062640228E0,2.894897507E1
9.252562708E0,-1.594439346E1,-2.180395844E1,-3.296145630E-1,2.701379152E1
9.262619708E0,-1.354952362E1,-1.872306519E1,2.218087463E0,2.321772324E1
9.272677708E0,-9.284592590E0,-1.757435394E1,4.584067383E0,2.039792268E1
9.282734708E0,-6.571035461E0,-1.590233093E1,6.475983124E0,1.838480333E1
9.292792708E0,-4.882846069E0,-1.282697617E1,6.923402710E0,1.537228052E1
9.302850708E0,-3.262016602E0,-9.237889709E0,6.008355560E0,1.149259306E1
9.312907708E0,-2.542313232E0,-5.935756531E0,4.500690765E0,7.871008800E0
9.322965708E0,-1.906435547E0,-3.892804871E0,3.611240387E0,5.641762436E0
9.333022708E0,-1.797911224E0,-2.946023712E0,3.717220001E0,5.072402293E0
9.343080708E0,-2.092648315E0,-2.089055786E0,4.630021820E0,5.493672097E0
9.353138708E0,-2.532134399E0,-1.255588989E0,5.206622772E0,5.924282996E0
9.363195708E0,-2.909050598E0,-7.207511902E-1,5.566474457E0,6.322000913E0
9.373253708E0,-3.129542084E0,-4.562512207E-1,6.313121796E0,7.060998912E0
9.383310708E0,-1.904339905E0,-1.410067749E-1,7.758216705E0,7.989763440E0
9.393368708E0,3.155438232E-1,7.523355103E-1,8.455466766E0,8.494733360E0
9.403426708E0,2.138153687E0,1.852248230E0,7.715555420E0,8.217805068E0
9.413483708E0,3.833079071E0,2.732567596E0,5.830974426E0,7.493976487E0
9.423541708E0,5.040917358E0,3.688629456E0,3.305725708E0,7.067153425E0
9.433598708E0,4.664749603E0,4.535867615E0,6.682104492E-1,6.540679558E0
9.443656708E0,3.144960022E0,4.464017029E0,-1.277742920E0,5.608105611E0
9.453714708E0,1.009351044E0,3.398532715E0,-2.512674866E0,4.345382506E0
9.463771708E0,-9.933343506E-1,2.170336761E0,-2.799628143E0,3.678993413E0
9.473829708E0,-2.329306183E0,1.045575714E0,-1.860780487E0,3.159335355E0
9.483886708E0,-3.279979248E0,2.706372070E-1,-6.774911499E-1,3.360134316E0
9.493944708E0,-3.349285126E0,-4.730163574E-2,3.144960022E-1,3.364350760E0
9.504002708E0,-1.414857788E0,-5.358856201E-2,1.291963348E0,1.916732529E0
9.514059708E0,1.365909576E0,7.599696350E-1,1.786235504E0,2.373583808E0
9.524117708E0,3.612288208E0,2.103425903E0,1.604962463E0,4.477603280E0
9.534174708E0,4.982089691E0,3.230881348E0,6.743476868E-1,5.976165725E0
9.544232708E0,5.220843201E0,3.914509735E0,-3.038681030E-1,6.532451762E0
9.554289708E0,4.594545593E0,4.032763824E0,-9.514215088E-1,6.186940776E0
9.564347708E0,3.461401978E0,3.588487701E0,-1.003363495E0,5.085792557E0
9.574405708E0,2.391277313E0,2.638563080E0,-5.981561279E-1,3.610818892E0
9.584462708E0,1.398092651E0,1.854643250E0,1.675016785E-1,2.328609340E0
9.594520708E0,4.191284180E-1,1.396146698E0,1.220561829E0,1.901227343E0
9.604577708E0,-6.664141846E-1,7.217990112E-1,1.932182007E0,2.167585981E0
9.614635708E0,-1.482068024E0,-1.809736633E-1,2.247875519E0,2.698559142E0
9.624693708E0,-1.847607880E0,-8.907975769E-1,2.681523743E0,3.376054618E0
9.634750708E0,-2.074685669E0,-1.569785614E0,2.941982117E0,3.927315403E0
9.644808708E0,-2.500849457E0,-2.252665558E0,2.644550629E0,4.280467048E0
9.654865708E0,-2.964585114E0,-2.768043823E0,1.863325195E0,4.463497764E0
9.664923708E0,-3.159779205E0,-3.291355591E0,1.258283386E0,4.732917000E0
9.674981958E0,-3.133583679E0,-3.728746033E0,8.608598328E-1,4.946106883E0
9.685038958E0,-2.656076660E0,-3.681594086E0,3.628454590E-1,4.554177759E0
9.695096958E0,-2.599793701E0,-3.273842010E0,-4.803511047E-1,4.208052517E0
9.705153958E0,-3.115920410E0,-3.369642792E0,-1.520388336E0,4.834773339E0
9.715211958E0,-3.259172516E0,-4.192182312E0,-1.913770294E0,5.644387900E0
9.725269958E0,-3.224145355E0,-4.909041595E0,-1.762734375E0,6.131968292E0
9.735326958E0,-3.166066132E0,-5.129084015E0,-1.421593781E0,6.192931976E0
9.745384958E0,-2.479743347E0,-5.026247864E0,-1.136736145E0,5.718781664E0
9.755441958E0,-1.479673004E0,-4.686304779E0,-9.467811584E-1,5.004725691E0
9.765499958E0,-1.320254517E-1,-3.838617554E0,-7.481442261E-1,3.913072351E0
9.775557958E0,1.950893097E0,-2.801723785E0,-1.933080139E0,3.923319879E0
9.785614958E0,3.046614532E0,-2.841840363E0,-3.416944427E0,5.388267437E0
9.795672958E0,9.235794067E-1,-3.691174164E0,-5.122048645E0,6.380685539E0
9.805729958E0,-2.888842621E0,-5.495671692E0,-7.356452179E0,9.626276938E0
9.815787958E0,-1.875449982E0,-7.115603027E0,-8.744216309E0,1.142849237E1
9.825845958E0,5.823340302E0,-6.759194183E0,-9.262438660E0,1.286043422E1
9.835902958E0,1.917033508E1,-4.191284180E0,-8.191266174E0,2.126418237E1
9.845960958E0,3.441837662E1,-1.149459686E0,-6.182144165E0,3.498806672E1
9.856017958E0,4.688415390E1,2.301913147E0,-2.204914856E0,4.699238599E1
9.866075958E0,5.228118073E1,6.499783630E0,4.066144409E0,5.284034988E1
9.876133958E0,4.745057602E1,8.700507202E0,9.265432434E0,4.912335726E1
9.886190958E0,3.881518341E1,8.541088715E0,1.374831024E1,4.205454427E1
9.896248958E0,3.400328979E1,6.909481659E0,1.732557129E1,3.878324476E1
9.906305958E0,3.531845490E1,4.203858032E0,1.951237381E1,4.056844106E1
9.916363958E0,3.628679123E1,2.654879150E0,1.801009781E1,4.059733026E1
9.926420958E0,3.634606796E1,8.216413879E-1,1.122994720E1,3.805027549E1
9.936478958E0,3.995446426E1,-1.101708984E-1,4.254153442E-1,3.995688089E1
9.946536958E0,4.035892319E1,1.392554169E0,-1.261187347E1,4.230651534E1
9.956593958E0,3.778248093E1,7.713459778E-1,-2.050151688E1,4.299329057E1
9.966651958E0,3.722324387E1,-1.489552460E0,-1.999497025E1,4.227987093E1
9.976708958E0,3.712893997E1,-8.843609619E-1,-1.545386353E1,4.022638656E1
9.986766958E0,3.536141556E1,-3.041674805E-1,-1.092832443E1,3.701284241E1
9.996824958E0,3.315889572E1,-8.303233337E-1,-9.161099396E0,3.441115436E1
1.000688196E1,3.279829559E1,2.610421600E0,-9.309889984E0,3.419380860E1
1.001693996E1,2.502076904E1,-6.409521332E0,-4.566703491E0,2.622928951E1
1.002699696E1,1.933619019E1,-1.009021729E1,6.544390869E0,2.277124914E1
1.003705496E1,1.810544952E1,-9.038354645E0,1.062221100E1,2.285455149E1
1.004711296E1,1.749427048E1,-1.078641953E1,1.127081223E1,2.343987103E1
1.005716996E1,1.714295105E1,-1.251262985E1,1.103714813E1,2.392206754E1
1.006722796E1,1.955234070E1,-1.270258484E1,1.056547897E1,2.559841859E1
1.007728496E1,2.121643021E1,-1.070798264E1,9.149573364E0,2.546590850E1
1.008734296E1,1.897588943E1,-1.000998413E1,6.883435822E0,2.253144138E1
1.009740096E1,1.581146988E1,-1.080258591E1,5.349425812E0,1.988252495E1
1.010745796E1,1.427596298E1,-1.130524063E1,4.539011078E0,1.876737079E1
1.011751596E1,1.370804398E1,-1.126272903E1,3.487747192E0,1.808103745E1
1.012757296E1,1.357841354E1,-1.109462860E1,2.694696350E0,1.774050412E1
1.013763096E1,1.373977798E1,-1.100990479E1,2.388283539E0,1.776804437E1
1.014768896E1,1.355715775E1,-1.079510147E1,2.321372681E0,1.748483666E1
1.015774596E1,1.482277588E1,-9.692644043E0,2.038161621E0,1.782739847E1
1.016780396E1,1.587463852E1,-8.041427765E0,1.010997620E0,1.782388355E1
1.017786096E1,1.527902710E1,-7.620203705E0,1.480421448E-1,1.707448652E1
1.018791896E1,1.425051590E1,-7.964188385E0,4.692741394E-1,1.633173960E1
1.019797696E1,1.382824402E1,-7.891289978E0,1.508562927E0,1.599276562E1
1.020803396E1,1.378618149E1,-7.155120850E0,1.747615814E0,1.563037797E1
1.021809196E1,1.370235580E1,-6.530469818E0,1.558558960E0,1.525879080E1
1.022814896E1,1.340088272E1,-6.077212372E0,1.714384918E0,1.481402321E1
1.023820696E1,1.330044159E1,-5.418881378E0,1.452579346E0,1.443523497E1
1.024826396E1,1.387524628E1,-4.383933563E0,6.728507996E-1,1.456688233E1
1.025832196E1,1.356269623E1,-3.201692047E0,-1.526824951E-1,1.393631490E1
1.026837996E1,1.234857101E1,-2.399510193E0,-1.223555603E0,1.263890595E1
1.027843696E1,1.120809265E1,-1.978136444E0,-2.183958435E0,1.158896195E1
1.028849496E1,1.054946228E1,-1.932032318E0,-2.491868134E0,1.101059990E1
1.029855196E1,1.001058289E1,-1.673669586E0,-1.493294678E0,1.025879469E1
1.030860996E1,1.002121078E1,-1.055305481E0,1.737886047E-1,1.007812174E1
1.031866796E1,9.666598206E0,-4.550537109E-1,9.276210022E-1,9.721660119E0
1.032872496E1,9.581275635E0,3.662882996E-1,9.430389404E-1,9.634538513E0
1.033878296E1,1.072534653E1,1.123862915E0,5.037025452E-1,1.079582522E1
1.034883996E1,1.217193832E1,2.412383423E0,-1.413061523E-1,1.240949813E1
1.035889796E1,1.265154099E1,3.678151245E0,-9.000782776E-1,1.320607537E1
1.036895596E1,1.165251846E1,4.116888885E0,-1.833836517E0,1.249371510E1
1.037901296E1,9.776769104E0,3.648812256E0,-2.448907471E0,1.071896417E1
1.038907096E1,7.584428101E0,2.810705109E0,-2.576741638E0,8.489005259E0
1.039912796E1,5.102589111E0,2.634371796E0,-2.498903503E0,6.262655117E0
1.040918596E1,4.307143250E0,3.043022003E0,-2.110610962E0,5.680329613E0
1.041924396E1,4.856949921E0,3.766617279E0,-1.966011658E0,6.453105461E0
1.042930096E1,6.256988525E0,4.954397278E0,-2.066752167E0,8.244235702E0
1.043935896E1,7.548802185E0,6.064339142E0,-1.924248505E0,9.872353112E0
1.044941596E1,8.003556519E0,7.132368164E0,-1.926194458E0,1.089209886E1
1.045947396E1,7.466473389E0,8.109985199E0,-1.819017334E0,1.117268584E1
1.046953196E1,6.727310486E0,9.345515900E0,-1.791773987E0,1.165357575E1
1.047958896E1,4.789889374E0,1.025771896E1,-1.685494995E0,1.144572986E1
1.048964696E1,2.746189270E0,1.014006363E1,8.053253174E-2,1.050566187E1
1.049970396E1,2.346520386E0,1.048000671E1,2.759661255E0,1.108839163E1
1.050976196E1,3.262315979E0,1.147723297E1,3.951931915E0,1.256930181E1
1.051981996E1,6.216422882E0,1.307411224E1,3.927981720E0,1.500017883E1
1.052987696E1,1.043599823E1,1.465766922E1,2.680625610E0,1.819184102E1
1.053993496E1,1.250245102E1,1.626427826E1,1.146615601E-1,2.051465759E1
1.054999196E1,1.241533218E1,1.678729065E1,-9.518705750E-1,2.090118796E1
1.056004996E1,1.230246689E1,1.558648773E1,1.136137390E0,1.988919555E1
1.057010796E1,1.339414673E1,1.368394409E1,4.570296021E0,1.968606355E1
1.058016496E1,1.577060486E1,1.204051163E1,8.171656952E0,2.145837541E1
1.059022296E1,1.946716782E1,1.146825165E1,1.119477036E1,2.521535845E1
1.060027996E1,2.333557343E1,1.035426819E1,1.252610184E1,2.843700202E1
1.061033796E1,2.648068314E1,9.667496338E0,1.478400650E1,3.183164955E1
1.062039596E1,3.236150391E1,8.935368805E0,1.660077850E1,3.745255128E1
1.063045296E1,3.873764465E1,8.255482635E0,1.834540054E1,4.364987775E1
1.064051096E1,4.773947525E1,9.388626251E0,2.192236221E1,5.336472398E1
1.065056796E1,6.071164948E1,1.042072998E1,2.516806274E1,6.654267336E1
1.066062596E1,7.521289398E1,9.384584656E0,2.768956924E1,8.069548993E1
1.067068396E1,8.939096054E1,5.089117126E0,2.951277786E1,9.427431780E1
1.068074125E1,9.769164917E1,-8.502319336E-2,2.950634125E1,1.020504273E2
1.069079925E1,1.048009653E2,-5.377567291E0,3.063993393E1,1.093204743E2
1.070085625E1,1.183344722E2,-8.338559875E0,3.394955154E1,1.233902384E2
1.071091425E1,1.342688365E2,-1.062849792E1,3.197860016E1,1.384330752E2
1.072097225E1,1.445226636E2,-1.754770935E1,2.298126022E1,1.473867725E2
1.073102925E1,1.468129010E2,-2.719784180E1,1.438074509E1,1.500018544E2
1.074108725E1,1.422581726E2,-3.531576050E1,1.129940277E1,1.470111122E2
1.075114425E1,1.340297836E2,-4.028467758E1,9.858499146E0,1.402997796E2
1.076120225E1,1.255478220E2,-4.254138474E1,7.104376373E0,1.327497540E2
1.077126025E1,1.178446907E2,-4.436623993E1,3.823798370E0,1.259776004E2
1.078131725E1,1.086256618E2,-4.576223694E1,-2.475851440E-1,1.178718712E2
1.079137525E1,9.508047913E1,-4.687143036E1,-2.625689850E0,1.060383079E2
1.080143225E1,7.951719315E1,-4.689627869E1,-3.940705261E0,9.240007640E1
1.081149025E1,6.225299423E1,-4.675841537E1,-4.347858582E0,7.797877002E1
1.082154725E1,4.478087769E1,-4.736989380E1,-5.829327850E0,6.544627497E1
1.083160525E1,2.703348358E1,-4.566389145E1,-7.628885651E0,5.361156697E1
1.084166325E1,1.220397171E1,-4.558814896E1,-5.820196838E0,4.755092998E1
1.085172025E1,-1.186432800E0,-4.888174988E1,8.707392883E-1,4.890389842E1
1.086177825E1,-1.065364563E1,-4.872637299E1,1.008333160E1,5.088647331E1
1.087183525E1,-1.128188919E1,-4.741614761E1,1.592313766E1,5.127492946E1
1.088189325E1,-1.016102005E1,-4.869224396E1,1.502425690E1,5.196065093E1
1.089195125E1,-4.840633850E0,-4.661755829E1,8.327183533E0,4.760221069E1
1.090200825E1,5.819897461E-1,-3.844440445E1,1.677411804E0,3.848538237E1
1.091206625E1,-2.127076721E0,-3.148477707E1,-2.103276215E0,3.162656183E1
1.092212325E1,-6.646179199E0,-2.611693954E1,-3.873944092E0,2.722634151E1
1.093218125E1,-6.990912323E0,-2.035482193E1,-2.943778381E0,2.172228031E1
1.094223925E1,-8.505313110E-1,-1.651291122E1,1.197659454E0,1.657811898E1
1.095229625E1,3.166664886E0,-1.363110397E1,4.810546417E0,1.479784170E1
1.096235425E1,1.624421997E0,-1.195488968E1,6.733447723E0,1.381656442E1
1.097241125E1,-1.241817627E0,-1.076531342E1,6.970404968E0,1.288489928E1
1.098246925E1,-2.818339233E0,-9.240284729E0,6.382577362E0,1.157856605E1
1.099252725E1,-3.865860901E0,-7.640411682E0,4.453538818E0,9.651672352E0
1.100258425E1,-5.168302460E0,-5.781427460E0,2.346071320E0,8.101870427E0
1.101264225E1,-6.031108246E0,-4.439917145E0,2.004331970E-1,7.491815827E0
1.102269925E1,-6.618935852E0,-3.111130371E0,-1.142723694E0,7.402382146E0
1.103275725E1,-6.567592621E0,-2.066452789E0,-1.005459137E0,6.958049155E0
1.104281525E1,-4.949307861E0,-1.410965881E0,3.164419556E-1,5.156220373E0
1.105287225E1,-2.480491791E0,-4.150868225E-1,2.802921295E0,3.765833823E0
1.106293025E1,5.194198608E-2,3.327580261E-1,4.663552094E0,4.675697168E0
1.107298725E1,2.226170654E0,1.121467896E0,5.558391266E0,6.091735343E0
1.108304525E1,3.460054779E0,2.111658783E0,5.545518036E0,6.869050311E0
1.109310325E1,3.694317627E0,3.100352783E0,4.783752136E0,6.792970971E0
1.110316025E1,2.996169434E0,3.864214325E0,3.469784546E0,5.995714171E0
1.111321825E1,1.402134247E0,3.877686310E0,2.055974579E0,4.607544143E0
1.112327525E1,-2.921923828E-1,3.520978088E0,2.908451843E-1,3.545032300E0
1.113333325E1,-1.868115234E0,2.915487213E0,-1.541045380E0,3.790084574E0
1.114339125E1,-2.560575256E0,2.404599609E0,-3.334615631E0,4.843377575E0
1.115344825E1,-1.773362274E0,2.475102997E0,-4.315525818E0,5.281544441E0
1.116350625E1,-4.409829712E-1,2.817740479E0,-4.574038239E0,5.390357427E0
1.117356325E1,4.266128540E-2,2.756218414E0,-4.377347260E0,5.172980665E0
1.118362125E1,-8.217910767E-2,2.144590302E0,-3.743415527E0,4.314994876E0
1.119367925E1,-7.271878052E-1,1.573677521E0,-3.046464844E0,3.505169195E0
1.120373625E1,-1.537752228E0,1.091230774E0,-2.086960144E0,2.812626736E0
1.121379425E1,-2.213447113E0,4.239184570E-1,-8.325686646E-1,2.402545642E0
1.122385125E1,-2.754721527E0,-1.660047913E-1,3.132984924E-1,2.777445630E0
1.123390925E1,-3.080743561E0,-4.716691589E-1,1.376387787E0,3.407036252E0
1.124396725E1,-3.020718384E0,-3.276686096E-1,2.359094238E0,3.846743025E0
1.125402425E1,-2.278112640E0,2.621049500E-1,3.073708191E0,3.834863524E0
1.126408225E1,-1.482517090E0,7.542814636E-1,3.049458618E0,3.473614157E0
1.127413925E1,-1.326541443E0,8.806187439E-1,2.401007080E0,2.880978405E0
1.128419725E1,-9.620494080E-1,1.006057892E0,1.618434448E0,2.134718157E0
1.129425525E1,-7.777825928E-1,1.144669647E0,8.062234497E-1,1.601627489E0
1.130431225E1,-1.128503265E0,1.078357544E0,2.095642090E-3,1.560890452E0
1.131437025E1,-1.896556091E0,8.039781189E-1,-4.718188477E-1,2.113272071E0
1.132442725E1,-2.386337585E0,5.352868652E-1,-5.071453857E-1,2.497666019E0
1.133448525E1,-2.305355988E0,2.504292297E-1,-5.207670593E-1,2.376674012E0
1.134454325E1,-1.819167023E0,-1.221459961E-1,-3.008743286E-1,1.847921444E0
1.135460025E1,-1.906884613E0,-3.965254211E-1,1.288819885E-1,1.951935425E0
1.136465825E1,-2.406096497E0,-6.509962463E-1,6.369255066E-1,2.572697138E0
1.137471525E1,-2.519859924E0,-8.861572266E-1,1.198407898E0,2.927652670E0
1.138477325E1,-2.417921906E0,-1.160087585E0,1.539698181E0,3.092380966E0
1.139483125E1,-2.224374390E0,-1.554517365E0,1.596879272E0,3.148712288E0
1.140488825E1,-1.378034363E0,-1.797013092E0,1.463506622E0,2.696309773E0
1.141494625E1,-8.107141113E-1,-1.751657410E0,1.168769531E0,2.256453693E0
1.142500325E1,-1.461410980E0,-2.070793762E0,5.167254639E-1,2.586680124E0
1.143506125E1,-2.521805878E0,-2.680475922E0,-5.105882263E-1,3.715529086E0
1.144511925E1,-3.062331848E0,-3.179388428E0,-1.035546570E0,4.534175098E0
1.145517625E1,-3.776646423E0,-3.760030975E0,-1.245859222E0,5.472938547E0
1.146523425E1,-5.516777802E0,-4.260290680E0,-1.749262390E0,7.186433949E0
1.147529125E1,-7.610324249E0,-5.106780396E0,-2.455044708E0,9.488070705E0
1.148534925E1,-9.150471497E0,-6.314019928E0,-2.198627930E0,1.133278170E1
1.149540725E1,-9.712552643E0,-7.113357697E0,-1.045575714E0,1.208415347E1
1.150546425E1,-9.226513367E0,-8.465495911E0,-1.284778290E0,1.258744713E1
1.151552225E1,-6.843169556E0,-1.061442719E1,-2.847229156E0,1.294610937E1
1.152557925E1,-2.030677185E0,-1.246996857E1,-5.827082520E0,1.391325471E1
1.153563725E1,5.394631805E0,-1.451561462E1,-8.580307159E0,1.770386374E1
1.154569525E1,1.486483841E1,-1.713875977E1,-1.033989807E1,2.493218802E1
1.155575225E1,2.101899078E1,-1.938274338E1,-1.102397552E1,3.064338021E1
1.156581025E1,2.462798584E1,-2.200094879E1,-9.661808167E0,3.440828347E1
1.157586725E1,3.422632599E1,-2.470133331E1,-4.138743439E0,4.241139535E1
1.158592525E1,5.272021774E1,-2.222458374E1,3.084934845E0,5.729633762E1
1.159598325E1,6.897237122E1,-1.555310715E1,5.870342560E0,7.094750210E1
1.160604025E1,7.681127014E1,-9.917626190E0,4.181105347E0,7.756166690E1
1.161609825E1,7.292130936E1,-6.601122894E0,3.158432007E-1,7.322016074E1
1.162615525E1,6.408653137E1,-6.497238922E0,-3.993246002E0,6.453869871E1
1.163621325E1,5.537105530E1,-8.786578217E0,-6.909032593E0,5.648798503E1
1.164627125E1,4.937482452E1,-1.137200180E1,-7.739655304E0,5.125522399E1
1.165632825E1,4.596237076E1,-1.283475998E1,-6.524033203E0,4.816465092E1
1.166638625E1,4.428989868E1,-1.325448715E1,-5.901028748E0,4.660577963E1
1.167644246E1,4.316214386E1,-1.422162598E1,-7.412286072E0,4.604527438E1
1.168650046E1,4.163202576E1,-1.563348999E1,-9.108408966E0,4.539377371E1
1.169655846E1,4.004622345E1,-1.568258789E1,-9.157506866E0,4.397162162E1
1.170661546E1,3.884646835E1,-1.460168564E1,-8.025560760E0,4.226898334E1
1.171667346E1,3.781211929E1,-1.297471893E1,-6.514303436E0,4.050352881E1
1.172673046E1,3.474948807E1,-1.133877090E1,-4.522395630E0,3.683132782E1
1.173678846E1,3.032409073E1,-1.107232498E1,-1.824106750E0,3.233379385E1
1.174684646E1,2.590917160E1,-1.161240189E1,1.521136780E0,2.843320080E1
1.175690346E1,2.322570190E1,-1.223136475E1,4.354444885E0,2.660828260E1
1.176696146E1,2.159199921E1,-1.219678665E1,6.035149841E0,2.552252080E1
1.177701846E1,1.941372894E1,-1.170954987E1,6.061794434E0,2.346810136E1
1.178707646E1,1.705223969E1,-1.188842789E1,3.988605652E0,2.116654367E1
1.179713446E1,1.524190430E1,-1.221504868E1,8.716374207E-1,1.955205392E1
1.180719146E1,1.588182358E1,-1.172796158E1,-1.779798889E0,1.982284256E1
1.181724946E1,1.896017212E1,-1.048988617E1,-3.412304077E0,2.193557972E1
1.182730646E1,2.187042023E1,-9.000034332E0,-3.956871643E0,2.397858903E1
1.183736446E1,2.352463028E1,-7.722890167E0,-3.820804596E0,2.505294015E1
1.184742246E1,2.332494553E1,-6.889872437E0,-2.658771057E0,2.446614987E1
1.185747946E1,2.156909683E1,-6.096073151E0,-5.698649597E-1,2.242125759E1
1.186753746E1,1.926329178E1,-5.513334961E0,1.120869141E0,2.006807465E1
1.187759446E1,1.695673828E1,-5.063370667E0,1.878443756E0,1.779598962E1
1.188765246E1,1.463596436E1,-4.288881226E0,1.984123993E0,1.537994482E1
1.189771046E1,1.270078857E1,-3.207529907E0,1.692979431E0,1.320849946E1
1.190776746E1,1.183094742E1,-2.193089447E0,1.120869141E0,1.208458960E1
1.191782546E1,1.118144806E1,-1.240470428E0,5.785469055E-1,1.126491296E1
1.192788246E1,9.999655609E0,-3.631448364E-1,1.736389160E-2,1.000626244E1
1.193794046E1,8.462352448E0,3.059637451E-1,-7.987390137E-1,8.505469227E0
1.194799846E1,7.173831940E0,8.759783936E-1,-1.568139038E0,7.395286532E0
1.195805546E1,6.412365417E0,1.434916077E0,-2.107766876E0,6.900731526E0
1.196811346E1,6.236331482E0,2.094294891E0,-2.530188446E0,7.048386696E0
1.197817046E1,6.385870514E0,2.811752930E0,-3.050805817E0,7.615294669E0
1.198822846E1,6.664740601E0,3.584296417E0,-3.142415314E0,8.193944232E0
1.199828646E1,7.358697510E0,4.253854065E0,-2.667303314E0,8.908434790E0
1.200834346E1,8.377029877E0,4.639901276E0,-1.610051880E0,9.710591149E0
1.201840146E1,9.278006287E0,4.825664978E0,-7.759863281E-1,1.048668670E1
1.202845846E1,9.453441467E0,5.035678253E0,-2.839595032E-1,1.071476757E1
1.203851646E1,8.661737823E0,5.023553467E0,2.115101624E-1,1.001531468E1
1.204857446E1,7.674091644E0,4.710704041E0,5.664221191E-1,9.022374917E0
1.205863146E1,6.683302002E0,4.703069916E0,7.342231750E-1,8.205149356E0
1.206868946E1,6.371500397E0,5.057682495E0,8.768765259E-1,8.181997431E0
1.207874646E1,6.451583862E0,5.895639954E0,6.312373352E-1,8.762417781E0
1.208880446E1,7.040758667E0,7.085216217E0,-1.695973206E-1,9.990061797E0
1.209886246E1,8.143665161E0,8.011190643E0,-8.532257080E-1,1.145541147E1
1.210891946E1,9.108109589E0,8.591982880E0,-5.559439087E-1,1.253351123E1
1.211897746E1,9.269773407E0,8.976233826E0,1.095721436E0,1.294998371E1
1.212903446E1,9.106013947E0,8.501570892E0,3.129991150E0,1.284496174E1
1.213909246E1,9.193282471E0,7.494914246E0,4.458628235E0,1.267160400E1
1.214915046E1,9.240284729E0,7.207362213E0,4.756957855E0,1.264743373E1
1.215920746E1,8.981772308E0,7.272027740E0,3.982169037E0,1.222343207E1
1.216926546E1,8.467741241E0,6.978039093E0,3.271297302E0,1.144976233E1
1.217932246E1,8.642427979E0,6.838229828E0,2.847378845E0,1.138246524E1
1.218938046E1,9.247619476E0,6.838080139E0,1.976938934E0,1.166987976E1
1.219943846E1,9.919123077E0,6.777156830E0,1.209035797E0,1.207396475E1
1.220949546E1,1.192959229E1,6.678811340E0,2.198777618E0,1.384761048E1
1.221955346E1,1.427731018E1,6.702462158E0,3.227737885E0,1.609915764E1
1.222961046E1,1.534099823E1,6.564149780E0,2.957250366E0,1.694637480E1
1.223966846E1,1.763168472E1,6.008804626E0,3.385509796E0,1.893260985E1
1.224972646E1,2.096061218E1,4.932991791E0,4.277953949E0,2.195410124E1
1.225978346E1,2.378508865E1,3.662433929E0,5.663472748E0,2.472283940E1
1.226984146E1,2.802457260E1,3.013982391E0,9.047186279E0,2.960257318E1
1.227989846E1,3.382426208E1,2.136656799E0,1.086066513E1,3.558932501E1
1.228995646E1,3.975358200E1,2.049388275E0,1.019694534E1,4.109166544E1
1.230001446E1,4.814722733E1,1.895208893E0,9.836345215E0,4.917825742E1
1.231007146E1,5.527525452E1,-3.137475586E-1,5.634283447E0,5.556255348E1
1.232012946E1,5.910025040E1,-2.393372955E0,3.707041168E0,5.926474488E1
1.233018646E1,6.418637375E1,-5.325924683E0,7.303162994E0,6.481969021E1
1.234024446E1,6.998007568E1,-7.839198303E0,1.183738403E1,7.140579587E1
1.235030246E1,7.625442810E1,-1.066906357E1,1.527573395E1,7.849786475E1
1.236035946E1,8.485060226E1,-1.372346191E1,1.793660065E1,8.780478207E1
1.237041746E1,9.403071213E1,-1.742047394E1,1.918964493E1,9.753712220E1
1.238047446E1,1.046196922E2,-2.022429337E1,1.864492767E1,1.081754842E2
1.239053246E1,1.184494331E2,-2.264865189E1,1.593690903E1,1.216438026E2
1.240059046E1,1.288888742E2,-2.769675430E1,8.915909271E0,1.321323031E2
1.241064746E1,1.302534366E2,-3.578698059E1,3.454665985E0,1.351243888E2
1.242070546E1,1.250375331E2,-4.456981659E1,2.460134125E0,1.327663568E2
1.243076246E1,1.161770087E2,-4.859120407E1,3.697760468E0,1.259836334E2
1.244082046E1,1.074818903E2,-4.942032990E1,4.844974823E0,1.183984777E2
1.245087846E1,1.014465907E2,-5.018987961E1,4.771327972E0,1.132837162E2
1.246093546E1,9.538898758E1,-5.066559036E1,3.958368530E0,1.080820507E2
1.247099346E1,8.362061005E1,-5.217145889E1,3.371289368E0,9.861862471E1
1.248105046E1,6.838663925E1,-5.492603073E1,2.637515259E0,8.775282199E1
1.249110846E1,5.346357193E1,-5.507212692E1,2.459834747E0,7.679416302E1
1.250116646E1,3.781271805E1,-5.353676971E1,3.660937042E0,6.564594289E1
1.251122346E1,2.197146011E1,-5.383973969E1,6.474037170E0,5.850962131E1
1.252128146E1,8.073760529E0,-5.354111069E1,7.495962067E0,5.466283555E1
1.253133846E1,-1.178349609E0,-5.020754288E1,5.749394073E0,5.054939566E1
1.254139646E1,-5.489684143E0,-4.765535019E1,4.409829712E0,4.817276857E1
1.255145446E1,-7.655081177E0,-4.379817123E1,3.447780304E0,4.459559687E1
1.256151146E1,-9.259145508E0,-3.720737686E1,4.324956207E0,3.858530698E1
1.257156946E1,-9.125772858E0,-3.069262436E1,6.465804291E0,3.266685699E1
1.258162646E1,-5.988896027E0,-2.481150421E1,8.333919525E0,2.685017377E1
1.259168446E1,-1.950593719E0,-1.946357529E1,8.943601685E0,2.150868638E1
1.260174246E1,-3.098556519E-1,-1.611099701E1,8.752898254E0,1.833776058E1
1.261179946E1,-2.646496582E-1,-1.436083649E1,8.988059235E0,1.694369714E1
1.262185746E1,-1.233285370E0,-1.374232269E1,9.969568176E0,1.702247677E1
1.263191446E1,-3.246898041E0,-1.393721741E1,9.658515015E0,1.726485703E1
1.264197246E1,-5.927224274E0,-1.356434280E1,8.134234772E0,1.689050498E1
1.265203046E1,-7.433092804E0,-1.246143631E1,5.208568726E0,1.541646690E1
1.266208746E1,-9.140142975E0,-1.123548569E1,1.251846771E0,1.453772584E1
1.267214546E1,-1.116857483E1,-9.854457550E0,-3.023712158E0,1.519836282E1
1.268220225E1,-1.135014725E1,-8.073910217E0,-6.047424316E0,1.518503242E1
1.269226025E1,-9.555529175E0,-6.275998993E0,-7.340136108E0,1.358579770E1
1.270231825E1,-7.766599274E0,-4.681365051E0,-7.685318298E0,1.188694075E1
1.271237525E1,-7.323969727E0,-3.932322693E0,-7.450606384E0,1.116311918E1
1.272243325E1,-7.573800201E0,-4.003275146E0,-6.631210327E0,1.083335644E1
1.273249025E1,-8.255632324E0,-4.337380371E0,-4.971910858E0,1.056826529E1
1.274254825E1,-8.860973511E0,-4.659360809E0,-2.691852264E0,1.036689748E1
1.275260625E1,-8.741821289E0,-5.003944244E0,-1.969903564E-1,1.007460682E1
1.276266325E1,-8.001011810E0,-4.837640076E0,2.409689026E0,9.655338041E0
1.277272125E1,-7.044201508E0,-4.194128265E0,4.175716553E0,9.200439963E0
1.278277825E1,-5.607938232E0,-3.424877930E0,4.816533966E0,8.147254722E0
1.279283625E1,-3.307222595E0,-2.449955292E0,4.432283020E0,6.048564705E0
1.280289425E1,-6.456074524E-1,-1.056952057E0,3.205583954E0,3.436528062E0
1.281295125E1,1.546134796E0,7.472460938E-1,1.628164215E0,2.366395623E0
1.282300925E1,3.176544342E0,2.273472290E0,1.110690308E-1,3.907869821E0
1.283306625E1,4.106560364E0,3.203937378E0,-7.816744995E-1,5.266884066E0
1.284312425E1,4.316573639E0,3.764371948E0,-8.357121277E-1,5.788066940E0
1.285318225E1,4.280498657E0,4.053720245E0,-1.372645569E-1,5.896961772E0
1.286323925E1,4.205953674E0,4.084556122E0,1.158890076E0,5.976342630E0
1.287329725E1,4.351600800E0,3.857927399E0,2.450703735E0,6.310783005E0
1.288335425E1,3.967200165E0,3.300785980E0,2.727478180E0,5.837208447E0
1.289341225E1,3.178490295E0,2.822829895E0,2.347268829E0,4.856010722E0
1.290347025E1,2.840343475E0,2.571951599E0,1.896256714E0,4.275310002E0
1.291352725E1,2.916834412E0,2.399809570E0,1.535955963E0,4.077520040E0
1.292358525E1,2.930156708E0,2.276016998E0,1.054407349E0,3.857181168E0
1.293364225E1,2.298320618E0,2.142494659E0,4.887336731E-1,3.179846165E0
1.294370025E1,1.253942413E0,1.751956787E0,1.353186035E-1,2.158711487E0
1.295375825E1,4.010160828E-1,1.153950348E0,7.529342651E-2,1.223962583E0
1.296381525E1,-2.454895020E-2,7.412585449E-1,2.894979858E-1,7.961632780E-1
1.297387325E1,-4.260140991E-1,5.719606018E-1,5.782475281E-1,9.181487605E-1
1.298393025E1,-7.340734863E-1,1.468446350E-1,8.428971863E-1,1.127343291E0
1.299398825E1,-1.077758789E0,-4.543052673E-1,1.143472137E0,1.635691234E0
1.300404625E1,-1.474583588E0,-9.349557495E-1,1.659748535E0,2.409004817E0
1.301410325E1,-1.922751617E0,-1.544338531E0,1.749561768E0,3.023726453E0
1.302416125E1,-2.310295715E0,-2.115251312E0,1.638642426E0,3.535095954E0
1.303421825E1,-2.514770508E0,-2.537972260E0,1.753303986E0,3.979880496E0
1.304427625E1,-2.584824829E0,-2.967878265E0,1.984423370E0,4.407670236E0
1.305433425E1,-2.424807587E0,-3.260070648E0,2.023791504E0,4.539106136E0
1.306439125E1,-2.271526337E0,-3.465443573E0,1.801952820E0,4.518425060E0
1.307444925E1,-2.499502258E0,-3.689377899E0,1.505269775E0,4.703706827E0
1.308450625E1,-2.818339233E0,-3.803590393E0,1.358574829E0,4.925044312E0
1.309456425E1,-3.197500763E0,-3.830833740E0,8.093669128E-1,5.055133339E0
1.310462225E1,-3.636238403E0,-3.651207275E0,-7.200027466E-2,5.153516114E0
1.311467925E1,-3.975582733E0,-3.403622131E0,-1.068927155E0,5.341582813E0
1.312473725E1,-4.117487640E0,-3.293600922E0,-1.839674377E0,5.584434915E0
1.313479525E1,-3.498524780E0,-2.948269043E0,-1.871408386E0,4.943089655E0
1.314485225E1,-3.158282318E0,-2.201921082E0,-1.592388611E0,4.166401942E0
1.315491025E1,-3.635639648E0,-2.047292633E0,-8.458909607E-1,4.257324782E0
1.316496725E1,-4.267026672E0,-2.448458405E0,-7.963439941E-2,4.920244589E0
1.317502525E1,-3.968547363E0,-2.978655853E0,4.569996643E-1,4.983031965E0
1.318508325E1,-2.910846863E0,-3.599414978E0,6.237528992E-1,4.670961927E0
1.319514025E1,3.734733582E-1,-5.784121857E0,1.511856079E-1,5.798138071E0
1.320519825E1,4.417164459E0,-8.875643005E0,-2.195185089E0,1.015417245E1
1.321525525E1,7.117998047E0,-1.210487778E1,-7.863747253E0,1.609448611E1
1.322531325E1,1.044692551E1,-1.338980576E1,-1.443029205E1,2.228583585E1
1.323537125E1,1.649599640E1,-1.303713913E1,-1.716345840E1,2.714165062E1
1.324542825E1,2.378463959E1,-1.498249374E1,-1.307291473E1,3.100137576E1
1.325548625E1,3.148268143E1,-1.891152328E1,-3.752995605E0,3.691733900E1
1.326554325E1,3.778263062E1,-2.047876419E1,5.219196625E0,4.329141915E1
1.327560125E1,4.082969421E1,-2.092094467E1,9.708810425E0,4.689361210E1
1.328565925E1,4.157738937E1,-2.451961121E1,1.360715378E1,5.015022707E1
1.329571625E1,4.327156631E1,-2.772130325E1,1.491737915E1,5.351100173E1
1.330577425E1,4.673506393E1,-2.938838654E1,1.108998825E1,5.631013500E1
1.331583125E1,6.093962540E1,-3.066912323E1,5.071902924E0,6.841021314E1
1.332588925E1,7.084976715E1,-2.851555161E1,-2.079775085E0,7.640125426E1
1.333594725E1,6.920858002E1,-2.667138657E1,-8.384364624E0,7.464240068E1
1.334600425E1,6.495487564E1,-2.559048431E1,-1.049287994E1,7.059822439E1
1.335606225E1,6.090968765E1,-2.249477188E1,-9.445657654E0,6.561421538E1
1.336611925E1,5.616126205E1,-1.724533813E1,-7.126230927E0,5.917999840E1
1.337617725E1,5.213747955E1,-1.413091461E1,-3.159330139E0,5.411082044E1
1.338623525E1,4.819348114E1,-1.360745316E1,1.446741486E0,5.009857749E1
1.339629225E1,4.284794724E1,-1.299492691E1,6.704557800E0,4.527433934E1
1.340635025E1,3.791735046E1,-1.290690994E1,1.015024246E1,4.131998563E1
1.341640725E1,3.347503830E1,-1.334998856E1,1.077219910E1,3.761436769E1
1.342646525E1,2.875340698E1,-1.403616165E1,9.203161926E0,3.329369965E1
1.343652325E1,2.470268051E1,-1.443792618E1,6.810238037E0,2.941182549E1
1.344658025E1,2.316373077E1,-1.422042847E1,4.176764374E0,2.749953399E1
1.345663825E1,2.200858292E1,-1.330313599E1,1.495989075E0,2.576022384E1
1.346669525E1,1.988015900E1,-1.264480499E1,-6.035449219E-1,2.356854008E1
1.347675325E1,1.786265442E1,-1.237282059E1,-2.017803955E0,2.182275521E1
1.348681125E1,1.664613419E1,-1.148741180E1,-2.935096436E0,2.043695683E1
1.349686825E1,1.518277725E1,-9.980046387E0,-4.368066559E0,1.868684180E1
1.350692625E1,1.340163116E1,-8.118218079E0,-6.387068024E0,1.692051478E1
1.351698325E1,1.209395050E1,-6.477629700E0,-7.711364136E0,1.573812130E1
1.352704125E1,1.185849014E1,-4.899760895E0,-7.543712769E0,1.488418784E1
1.353709925E1,1.195339279E1,-3.251239014E0,-6.164331207E0,1.383665905E1
1.354715625E1,1.162362854E1,-2.148033142E0,-4.258494415E0,1.256413791E1
1.355721425E1,1.125479553E1,-1.761087799E0,-2.445913696E0,1.165136672E1
1.356727125E1,1.046174469E1,-1.812730408E0,-1.544787598E-1,1.061875497E1
1.357732925E1,9.938133545E0,-1.914518738E0,2.169588318E0,1.035079677E1
1.358738725E1,9.604327698E0,-1.843266907E0,3.808679810E0,1.049508386E1
1.359744425E1,9.286688232E0,-1.856589203E0,4.884043579E0,1.065567377E1
1.360750225E1,9.138496399E0,-2.160157928E0,5.658982086E0,1.096368902E1
1.361755925E1,1.001537292E1,-2.205363922E0,6.050268402E0,1.190701779E1
1.362761725E1,1.114746872E1,-1.744921417E0,5.860463104E0,1.271439489E1
1.363767525E1,1.144834305E1,-9.897418213E-1,5.129832458E0,1.258409029E1
1.364773225E1,1.184696411E1,-2.724334717E-1,3.883524170E0,1.247022609E1
1.365779025E1,1.163455582E1,3.662882996E-1,2.416275330E0,1.188845838E1
1.366784725E1,1.078058167E1,7.559280396E-1,1.007255402E0,1.085389016E1
1.367790625E1,9.518705750E0,7.664062500E-1,4.227209473E-1,9.558861370E0
1.368796425E1,8.074059906E0,7.993377686E-1,2.977308655E-1,8.118991803E0
1.369802125E1,7.289241943E0,6.703060913E-1,1.877096558E-1,7.322403518E0
1.370807925E1,7.100185089E0,6.503974915E-1,4.427792358E-1,7.143647433E0
1.371813625E1,7.042704620E0,5.310955811E-1,5.905220032E-1,7.087345562E0
1.372819425E1,6.932683411E0,3.370989990E-1,6.248007202E-1,6.968939012E0
1.373825225E1,7.148983612E0,5.587879944E-1,1.080752563E-1,7.171603096E0
1.374830925E1,7.772437134E0,1.149160309E0,-8.559201050E-1,7.903413670E0
1.375836725E1,7.551197205E0,1.563199310E0,-2.050885162E0,7.979367221E0
1.376842525E1,6.673871613E0,1.566941528E0,-2.888243866E0,7.438939486E0
1.377848225E1,6.511459351E0,1.771266632E0,-2.574047241E0,7.222340864E0
1.378854025E1,7.097490692E0,2.300715637E0,-1.591340790E0,7.628894551E0
1.379859725E1,7.149582367E0,2.762954407E0,-6.496490479E-1,7.692365628E0
1.380865525E1,6.880591736E0,3.420387268E0,9.340576172E-1,7.740417000E0
1.381871325E1,7.157815247E0,4.247716827E0,3.122656403E0,8.889791919E0
1.382877025E1,7.542515259E0,5.222489777E0,4.506229248E0,1.022105855E1
1.383882825E1,7.745044098E0,6.249354401E0,4.578977966E0,1.095477876E1
1.384888525E1,8.036637726E0,7.170389099E0,3.714675293E0,1.139301709E1
1.385894325E1,8.262068939E0,7.210056610E0,2.376757507E0,1.122032423E1
1.386900125E1,7.982001343E0,6.333030396E0,1.047072601E0,1.024285021E1
1.387905825E1,8.489895172E0,4.668042755E0,-9.295669556E-2,9.689044542E0
1.388911625E1,9.507928162E0,3.161126404E0,-6.251000977E-1,1.003913184E1
1.389917325E1,1.011446686E1,2.613714752E0,-3.957769775E-1,1.045421370E1
1.390923125E1,1.171823181E1,2.176024933E0,-2.776725769E-1,1.192179279E1
1.391928925E1,1.516077301E1,1.330583038E0,-1.613644409E-1,1.521990565E1
1.392934625E1,1.860600861E1,-1.959425354E-1,-3.959266663E-1,1.861125218E1
1.393940425E1,2.188344315E1,-3.288361816E0,-2.674937439E-1,2.213074694E1
1.394946125E1,2.431289108E1,-6.976392517E0,1.984123993E0,2.537170616E1
1.395951925E1,2.537538162E1,-9.216035156E0,4.898563385E0,2.743795218E1
1.396957725E1,2.809612381E1,-1.072684341E1,6.689888306E0,3.080928348E1
1.397963425E1,3.237617340E1,-1.213990494E1,7.349416809E0,3.534979241E1
1.398969225E1,3.734389297E1,-1.337558533E1,6.628515930E0,4.021703431E1
1.399974925E1,4.442252289E1,-1.656649979E1,6.023474121E0,4.779217191E1
1.400980725E1,5.117707672E1,-2.089175537E1,7.189998322E0,5.574275469E1
1.401986525E1,5.506569031E1,-2.310175964E1,7.834707642E0,6.022710512E1
1.402992225E1,5.890595444E1,-2.611409546E1,6.650969238E0,6.477725559E1
1.403998025E1,6.368222214E1,-3.098870865E1,4.860243073E0,7.098836132E1
1.405003725E1,6.824099213E1,-3.480681885E1,4.077221375E0,7.671356711E1
1.406009525E1,7.481457230E1,-3.898418198E1,4.269571381E0,8.447020724E1
1.407015325E1,8.248492172E1,-4.454661484E1,5.092410278E0,9.388341625E1
1.408021025E1,8.824045303E1,-4.971386948E1,6.469546509E0,1.014874446E2
1.409026825E1,8.965067047E1,-5.382297455E1,8.632099457E0,1.049222019E2
1.410032525E1,8.679191528E1,-5.706553162E1,1.123952728E1,1.044779327E2
1.411038325E1,7.948156723E1,-5.632083023E1,1.109208389E1,9.804279562E1
1.412044125E1,7.046042679E1,-5.283428055E1,6.822961578E0,8.833281241E1
1.413049825E1,6.161816437E1,-4.866844345E1,1.453776855E0,7.853361723E1
1.414055625E1,5.038597183E1,-4.520898743E1,-2.440973969E0,6.773888880E1
1.415061325E1,3.665891739E1,-4.183949432E1,-5.377118225E0,5.588678654E1
1.416067125E1,2.482153336E1,-3.798396194E1,-7.371421051E0,4.596985677E1
1.417072925E1,1.575952789E1,-3.496294418E1,-7.893385620E0,3.915451088E1
1.418078625E1,7.842341766E0,-3.215358627E1,-7.370672607E0,3.390696461E1
1.419084425E1,1.757944336E0,-2.936024506E1,-7.334447937E0,3.031350334E1
1.420090125E1,-2.565814362E0,-2.675326630E1,-6.121969299E0,2.756445481E1
1.421095925E1,-3.153192902E0,-2.538166855E1,-2.705174561E0,2.571944193E1
1.422101725E1,-1.535506897E0,-2.552761505E1,2.955753479E0,2.574399717E1
1.423107425E1,-1.676513672E0,-2.620061554E1,8.062982941E0,2.746442511E1
1.424113225E1,-2.138752441E0,-2.621782974E1,1.134026779E1,2.864525322E1
1.425118925E1,-9.104067993E-1,-2.394301025E1,1.161494659E1,2.662712085E1
1.426124725E1,-1.149459686E0,-2.029150360E1,9.643097076E0,2.249568175E1
1.427130525E1,-3.251538391E0,-1.906405609E1,6.033503265E0,2.025867464E1
1.428136225E1,-4.926255798E0,-1.878503632E1,1.393751678E0,1.947018565E1
1.429142025E1,-7.282955017E0,-1.726000763E1,-1.703757019E0,1.881095652E1
1.430147725E1,-9.080566864E0,-1.611414047E1,-9.476792908E-1,1.852080759E1
1.431153525E1,-8.285420380E0,-1.621622818E1,3.750001831E0,1.859238449E1
1.432159325E1,-6.286926270E0,-1.640663223E1,8.705895996E0,1.960856059E1
1.433165025E1,-3.881278839E0,-1.539997559E1,1.073402847E1,1.916880123E1
1.434170825E1,-1.619332581E0,-1.421773407E1,9.420959015E0,1.713244492E1
1.435176525E1,-4.203259277E-1,-1.298085617E1,5.908513184E0,1.426849077E1
1.436182325E1,1.670526123E-1,-1.133727402E1,1.519190826E0,1.143982646E1
1.437188125E1,1.490899658E-1,-9.420210571E0,-2.823728027E0,9.835447880E0
1.438193825E1,-1.559756470E-1,-8.238118744E0,-5.452561340E0,9.880351917E0
1.439199625E1,-8.246351624E-1,-7.843239899E0,-6.925348663E0,1.049556522E1
1.440205325E1,-1.094673615E0,-7.949668579E0,-7.529941406E0,1.100434271E1
1.441211125E1,-1.296304321E0,-8.058043213E0,-7.691605225E0,1.121486764E1
1.442216925E1,-1.937121735E0,-8.059989166E0,-7.721992035E0,1.132894642E1
1.443222625E1,-2.562670898E0,-8.301886139E0,-6.799310760E0,1.103264349E1
1.444228425E1,-3.382665710E0,-8.919052734E0,-5.128036194E0,1.082999004E1
1.445234125E1,-4.264182587E0,-9.791737976E0,-3.750899963E0,1.131948039E1
1.446239925E1,-5.635331268E0,-1.065604065E1,-2.882106628E0,1.239413972E1
1.447245725E1,-7.463928680E0,-1.094613739E1,-2.864742737E0,1.355488495E1
1.448251425E1,-7.439080353E0,-1.094284424E1,-3.502266998E0,1.368764518E1
1.449257225E1,-5.190905457E0,-1.020113663E1,-4.744982758E0,1.239046203E1
1.450262925E1,-3.391497345E0,-8.879235535E0,-6.348448334E0,1.143004261E1
1.451268725E1,-2.582878876E0,-8.192763062E0,-7.925568695E0,1.168791123E1
1.452274525E1,-2.120191040E0,-7.976911926E0,-8.971443787E0,1.219069881E1
1.453280225E1,-1.862876129E0,-8.002209320E0,-9.207502899E0,1.234033108E1
1.454286025E1,-1.645378418E0,-8.311615906E0,-8.478219452E0,1.198626022E1
1.455291825E1,-1.627864838E0,-8.858279114E0,-6.281836853E0,1.098091649E1
1.456297525E1,-1.656006317E0,-9.931098175E0,-3.034938812E0,1.051569881E1
1.457303325E1,-1.708846436E0,-1.063418610E1,1.697470093E-1,1.077194895E1
1.458309025E1,-1.925895081E0,-1.092473190E1,2.704875183E0,1.141819551E1
1.459314825E1,-2.141596527E0,-1.073896820E1,4.529880066E0,1.185038764E1
1.460320625E1,-1.723066864E0,-1.060664337E1,4.908442841E0,1.181366387E1
1.461326325E1,-2.722837830E-1,-1.050066376E1,3.811374207E0,1.117428526E1
1.462332125E1,8.141569519E-1,-9.433682556E0,1.504820709E0,9.587580690E0
1.463337825E1,5.851332092E-1,-8.452472992E0,-3.577560425E-1,8.480251761E0
1.464343625E1,5.483097839E-1,-8.600814514E0,-2.357297974E0,8.934847937E0
1.465349425E1,2.580633545E-1,-9.411079559E0,-3.565136261E0,1.006703590E1
1.466355125E1,-2.754272461E-2,-1.073777069E1,-3.054098969E0,1.116369108E1
1.467360925E1,-9.792636108E-1,-1.292367508E1,-7.295828247E-1,1.298124131E1
1.468366633E1,-1.151854706E0,-1.601175339E1,2.662962341E0,1.627250393E1
1.469372433E1,7.923023987E-1,-1.832728821E1,4.837640076E0,1.897155760E1
1.470378233E1,3.769461365E0,-1.878189285E1,4.903503113E0,1.977404058E1
1.471383933E1,8.569679260E0,-1.999362305E1,3.913012848E0,2.210194640E1
1.472389733E1,1.454046295E1,-2.288755508E1,1.772164764E0,2.717362340E1
1.473395433E1,1.910806458E1,-2.670850937E1,-1.224004669E0,3.286275691E1
1.474401233E1,2.376383286E1,-3.150633224E1,-2.004182281E0,3.951437043E1
1.475407033E1,3.510170563E1,-3.391392563E1,2.096240845E0,4.885364178E1
1.476412733E1,4.907125580E1,-3.215762787E1,6.218817902E0,5.899809210E1
1.477418533E1,6.024521942E1,-2.980586838E1,5.716312866E0,6.745778299E1
1.478424233E1,6.340739365E1,-2.840657822E1,1.800605621E0,6.950304623E1
1.479430033E1,6.061001083E1,-2.685161179E1,-9.017248535E-1,6.629777957E1
1.480435833E1,5.870791626E1,-2.673530365E1,1.829196167E-1,6.450914162E1
1.481441533E1,5.699502823E1,-2.679068848E1,4.098776550E0,6.311080891E1
1.482447333E1,5.531956238E1,-2.591725479E1,8.310268707E0,6.165240177E1
1.483453033E1,5.288263000E1,-2.434058350E1,1.177092224E1,5.939352803E1
1.484458833E1,4.954307465E1,-2.190589645E1,1.402209091E1,5.595537131E1
1.485464633E1,4.800322678E1,-2.098156860E1,1.472398132E1,5.441811856E1
1.486470333E1,4.761149139E1,-2.132300858E1,1.238030502E1,5.361713122E1
1.487476133E1,4.583393784E1,-2.131732040E1,9.192234650E0,5.137776936E1
1.488481833E1,4.318609406E1,-2.171683960E1,6.552324371E0,4.878107006E1
1.489487633E1,4.024126785E1,-2.217458771E1,4.442012787E0,4.616062669E1
1.490493433E1,3.779685104E1,-2.234687943E1,3.121608582E0,4.401964799E1
1.491499133E1,3.628259995E1,-2.155592422E1,2.800825653E0,4.229573917E1
1.492504933E1,3.515050415E1,-1.918350769E1,2.901266785E0,4.014949885E1
1.493510633E1,3.339151199E1,-1.735895187E1,3.329526215E0,3.778110676E1
1.494516433E1,3.121428955E1,-1.636591690E1,3.648961945E0,3.543289477E1
1.495522233E1,2.933165451E1,-1.570578964E1,3.481011200E0,3.345347850E1
1.496527933E1,2.887330765E1,-1.476140350E1,2.415227509E0,3.251769137E1
1.497533733E1,2.875176041E1,-1.277862671E1,2.486329651E-1,3.146456492E1
1.498539433E1,2.665611832E1,-1.055544983E1,-2.276166687E0,2.876016515E1
1.499545233E1,2.329096619E1,-9.239985352E0,-3.716022491E0,2.533091507E1
1.500551033E1,2.023087967E1,-9.092691650E0,-4.285438385E0,2.259049614E1
1.501556733E1,1.774679535E1,-9.907447357E0,-4.017794952E0,2.071832364E1
1.502562533E1,1.499566635E1,-9.874964905E0,-3.173700256E0,1.823341204E1
1.503568233E1,1.304118073E1,-9.335636444E0,-1.404529266E0,1.609966475E1
1.504574033E1,1.220636673E1,-9.195827179E0,8.680448914E-1,1.530725737E1
1.505579833E1,1.208227478E1,-8.571325836E0,2.538421326E0,1.502972299E1
1.506585533E1,1.205158859E1,-6.971452789E0,3.222798157E0,1.429084915E1
1.507591333E1,1.241952347E1,-5.121599579E0,3.038681030E0,1.377348641E1
1.508597033E1,1.305465271E1,-3.607947235E0,2.156116333E0,1.371459362E1
1.509602833E1,1.256846375E1,-2.283501434E0,6.673123169E-1,1.279163654E1
1.510608633E1,1.110585526E1,-1.507066040E0,-5.665718079E-1,1.122195494E1
1.511614333E1,9.361382904E0,-1.182840271E0,-1.405876465E0,9.539973250E0
1.512620133E1,7.793543243E0,-9.154962158E-1,-1.795516205E0,8.049927208E0
1.513625933E1,6.862030334E0,-3.149450684E-1,-1.818867645E0,7.105978484E0
1.514631633E1,6.584806824E0,5.258564758E-1,-1.834884338E0,6.855873867E0
1.515637433E1,6.744524689E0,1.277443542E0,-1.448687439E0,7.015637575E0
1.516643133E1,7.232509918E0,1.981878662E0,-2.357597351E-1,7.502841155E0
1.517648933E1,7.484136658E0,3.162772980E0,1.269210663E0,8.223522976E0
1.518654733E1,7.757917328E0,4.926405487E0,1.845063171E0,9.373313736E0
1.519660433E1,7.987689514E0,6.869814148E0,1.391955414E0,1.062709133E1
1.520666233E1,7.722441101E0,8.154891815E0,4.755610657E-1,1.124119724E1
1.521671933E1,7.002588043E0,9.532177734E0,-6.637197876E-1,1.184648368E1
1.522677733E1,6.511010284E0,1.068987030E1,-1.024020538E0,1.255847125E1
1.523683533E1,6.810238037E0,1.170461014E1,1.053808594E-1,1.354209532E1
1.524689233E1,8.136330414E0,1.284718414E1,1.936822357E0,1.532975192E1
1.525695033E1,9.229956207E0,1.430365540E1,3.554658051E0,1.739029163E1
1.526700733E1,1.024319916E1,1.548589691E1,4.420607300E0,1.908606562E1
1.527706533E1,1.072190369E1,1.628643219E1,4.903203735E0,2.010593194E1
1.528712333E1,1.094059891E1,1.633567978E1,5.416336670E0,2.039332835E1
1.529718033E1,1.199306030E1,1.558349396E1,7.000642090E0,2.087313510E1
1.530723833E1,1.400802017E1,1.471170685E1,9.216933289E0,2.230719182E1
1.531729533E1,1.611833176E1,1.369397324E1,1.054527100E1,2.363320253E1
1.532735333E1,1.725042755E1,1.197883987E1,1.117815491E1,2.379119590E1
1.533741133E1,1.891227173E1,1.017598892E1,1.204051163E1,2.462110259E1
1.534746833E1,2.113380203E1,8.638087006E0,1.195518906E1,2.577170310E1
1.535752633E1,2.390004959E1,6.720424805E0,1.028211823E1,2.687188931E1
1.536758433E1,2.717703506E1,5.018014984E0,8.659043427E0,2.896119373E1
1.537764133E1,3.064951401E1,3.667074280E0,6.236630859E0,3.149183556E1
1.538769933E1,3.455683868E1,1.929188232E0,2.629432068E0,3.471038433E1
1.539775633E1,3.881084244E1,-5.049000549E-1,6.839277649E-1,3.882015162E1
1.540781433E1,4.249812469E1,-3.015928345E0,3.415896606E-1,4.260637405E1
1.541787233E1,4.532020615E1,-5.382207642E0,9.641450500E-1,4.564886439E1
1.542792933E1,4.851486282E1,-8.700207825E0,3.543431396E0,4.941600386E1
1.543798733E1,5.314428589E1,-1.211820007E1,7.122339020E0,5.497175283E1
1.544804433E1,5.926101608E1,-1.408151733E1,9.746232605E0,6.168586716E1
1.545810233E1,6.718269287E1,-1.591550354E1,1.049482590E1,6.983522639E1
1.546816033E1,7.693416458E1,-1.758543091E1,1.062535446E1,7.963046664E1
1.547821733E1,8.848175125E1,-1.984573059E1,1.117546051E1,9.136610009E1
1.548827533E1,9.829489471E1,-2.396157166E1,1.034349060E1,1.017006934E2
1.549833233E1,1.052070708E2,-3.097224289E1,1.053673874E1,1.101763606E2
1.550839033E1,1.108959906E2,-4.048735611E1,1.201416641E1,1.186654412E2
1.551844833E1,1.143008102E2,-4.986310913E1,1.412328049E1,1.255008842E2
1.552850533E1,1.136499637E2,-5.846092987E1,1.506856476E1,1.286897673E2
1.553856333E1,1.093074939E2,-6.394776993E1,1.296019913E1,1.273004802E2
1.554862033E1,1.006445586E2,-6.569358948E1,8.065078583E0,1.204575459E2
1.555867833E1,8.997803970E1,-6.664665756E1,5.394781494E-1,1.119737274E2
1.556873633E1,7.730793732E1,-6.547624146E1,-6.935527496E0,1.015468213E2
1.557879333E1,6.413622803E1,-6.017935638E1,-1.035845947E1,8.855680868E1
1.558885133E1,5.422294281E1,-5.398733276E1,-8.757688293E0,7.701595114E1
1.559890833E1,4.704671585E1,-4.888189957E1,-5.605243835E0,6.807534308E1
1.560896633E1,3.927966751E1,-4.468163406E1,-1.586251373E0,5.951350179E1
1.561902433E1,3.205958176E1,-4.139836166E1,3.108735352E0,5.245288711E1
1.562908133E1,2.701956253E1,-3.803186234E1,6.865173798E0,4.715516857E1
1.563913933E1,2.250884262E1,-3.422752350E1,8.428822174E0,4.182363452E1
1.564919633E1,1.686288345E1,-3.070325226E1,8.254584503E0,3.598867465E1
1.565925433E1,1.113878677E1,-2.720667343E1,8.125552826E0,3.050082390E1
1.566931233E1,7.238347778E0,-2.367446869E1,8.287815399E0,2.610674301E1
1.567936925E1,4.737498322E0,-2.116463791E1,7.747588806E0,2.303065176E1
1.568942725E1,3.837719421E0,-1.924907135E1,7.504344635E0,2.101356768E1
1.569948425E1,5.138065338E0,-1.820199875E1,7.629035339E0,2.039398573E1
1.570954225E1,6.105054474E0,-1.849553833E1,6.992708588E0,2.069431327E1
1.571960025E1,3.970792694E0,-1.910866333E1,6.130651245E0,2.045710374E1
1.572965725E1,2.517764282E-1,-1.953991653E1,4.901856537E0,2.014695826E1
1.573971525E1,-3.118465118E0,-2.070224945E1,4.074976044E0,2.132869867E1
1.574977225E1,-7.129823456E0,-2.184721848E1,3.182980957E0,2.320057554E1
1.575983025E1,-1.156809402E1,-2.214479965E1,2.280807037E0,2.508814524E1
1.576988825E1,-1.343171860E1,-2.151475983E1,3.245999908E0,2.557014803E1
1.577994525E1,-1.335058731E1,-2.050945038E1,4.938230896E0,2.496521301E1
1.579000325E1,-1.313593369E1,-1.958826599E1,6.735992432E0,2.452807600E1
1.580006025E1,-1.251098328E1,-1.855451569E1,8.212222595E0,2.383768770E1
1.581011825E1,-1.113504456E1,-1.698487976E1,8.292156372E0,2.193707399E1
1.582017625E1,-9.328601074E0,-1.483220627E1,6.555767212E0,1.870815930E1
1.583023325E1,-7.980504456E0,-1.243494141E1,4.072730713E0,1.532655717E1
1.584029125E1,-7.218139801E0,-1.030621811E1,1.943558350E0,1.273173566E1
1.585034825E1,-6.690187683E0,-8.519683228E0,5.569917297E-1,1.084683610E1
1.586040625E1,-5.910459137E0,-7.073241119E0,-1.508862305E-1,9.218841239E0
1.587046425E1,-4.944517822E0,-5.767057343E0,-6.273454285E-1,7.622386055E0
1.588052125E1,-4.331093445E0,-4.495301971E0,-1.118623810E0,6.341721333E0
1.589057925E1,-3.848347321E0,-3.248245239E0,-1.399739227E0,5.226867526E0
1.590063625E1,-2.871778107E0,-2.160157928E0,-1.403780823E0,3.857977756E0
1.591069425E1,-1.955234070E0,-1.079555054E0,-1.464404755E0,2.670741595E0
1.592075225E1,-9.160949707E-1,-4.266128540E-2,-1.564247131E0,1.813261997E0
1.593080925E1,1.694476318E-1,7.982899475E-1,-1.701960754E0,1.887498278E0
1.594086725E1,7.936495972E-1,1.328487396E0,-1.562301178E0,2.198986907E0
1.595092425E1,1.181642761E0,1.383123779E0,-1.253193970E0,2.209028323E0
1.596098225E1,1.431922302E0,1.198557587E0,-8.195457458E-1,2.039263837E0
1.597104025E1,1.556163940E0,8.412506104E-1,-5.954617310E-1,1.866527115E0
1.598109725E1,1.006956024E0,5.384303284E-1,-8.759783936E-1,1.439168440E0
1.599115525E1,-2.300715637E-1,3.149450684E-1,-1.396895142E0,1.450323880E0
1.600121225E1,-1.370400238E0,1.930984497E-2,-1.706002350E0,2.188335829E0
1.601127025E1,-2.194286957E0,-4.323010254E-1,-1.640588379E0,2.773681607E0
1.602132825E1,-2.589315491E0,-8.840615845E-1,-1.229992218E0,2.999833404E0
1.603138525E1,-2.584675140E0,-1.177750854E0,-1.249002686E0,3.102845527E0
1.604144325E1,-2.398162994E0,-1.627266083E0,-1.442849579E0,3.237436572E0
1.605150025E1,-2.724634094E0,-2.466271362E0,-1.248852997E0,3.881463537E0
1.606155825E1,-3.743415527E0,-3.420986023E0,-1.041534119E0,5.176977738E0
1.607161625E1,-4.912484436E0,-4.289929047E0,-6.963519287E-1,6.559031984E0
1.608167325E1,-5.591322784E0,-5.232369232E0,-3.278182983E-2,7.657783812E0
1.609173125E1,-5.950126648E0,-5.913901978E0,1.090482330E0,8.459751500E0
1.610178825E1,-6.009253693E0,-6.041586456E0,1.892664185E0,8.728921730E0
1.611184625E1,-5.520520020E0,-5.641169128E0,1.996548157E0,8.141568336E0
1.612190425E1,-3.931424561E0,-5.078040161E0,1.796264648E0,6.668519899E0
1.613196125E1,-1.783840485E0,-4.415068817E0,1.429676971E0,4.971810111E0
1.614201925E1,-6.680607605E-1,-4.048032074E0,8.092172241E-1,4.181829907E0
1.615207625E1,-5.023553467E-1,-4.213737488E0,2.535726929E-1,4.251146154E0
1.616213425E1,-2.071691895E-1,-4.437671814E0,-1.724414062E-1,4.445850452E0
1.617219225E1,3.951782227E-2,-4.892725525E0,-2.341131592E-1,4.898482795E0
1.618224925E1,-3.152444458E-1,-5.650449829E0,6.402186584E-1,5.695335132E0
1.619230725E1,-8.524772644E-1,-6.226302338E0,2.420915680E0,6.734566877E0
1.620236525E1,-1.520238647E0,-6.953190765E0,3.284918976E0,7.838920847E0
1.621242225E1,-1.558558960E0,-7.368427277E0,3.238066406E0,8.198042487E0
1.622248025E1,2.921923828E-1,-7.407795410E0,2.746039581E0,7.905791713E0
1.623253725E1,3.368295593E0,-7.494914246E0,1.470392303E0,8.347527076E0
1.624259525E1,7.921078033E0,-7.132817230E0,1.682501221E-1,1.066062226E1
1.625265325E1,1.231848358E1,-7.098239136E0,-1.546883240E0,1.430114976E1
1.626271025E1,1.609318405E1,-6.694977722E0,-2.689606934E0,1.763653268E1
1.627276825E1,1.979618362E1,-5.497467957E0,-2.397863617E0,2.068479611E1
1.628282525E1,2.391876068E1,-4.666096802E0,-1.182241516E0,2.439830459E1
1.629288325E1,2.836571320E1,-3.984863434E0,-1.901046753E-1,2.864487671E1
1.630294125E1,3.291849564E1,-2.852318573E0,1.278491364E0,3.306656342E1
1.631299825E1,3.721007126E1,-1.003812561E0,2.778971100E0,3.732719817E1
1.632305625E1,3.956018417E1,1.783840485E0,3.012186127E0,3.971477715E1
1.633311325E1,4.076173553E1,4.538412323E0,2.110760651E0,4.106788990E1
1.634317125E1,4.074437164E1,5.767805786E0,-3.397933960E-1,4.115199708E1
1.635322925E1,3.854364807E1,5.951473846E0,-4.354145508E0,3.924272456E1
1.636328625E1,3.686009903E1,6.228697357E0,-8.008196869E0,3.823080941E1
1.637334425E1,3.669394455E1,7.373367004E0,-1.120899078E1,3.906985516E1
1.638340125E1,3.710768417E1,9.036708069E0,-1.376268036E1,4.059622751E1
1.639345925E1,3.733042099E1,1.020218445E1,-1.368529129E1,4.104792439E1
1.640351725E1,3.735811340E1,1.027268784E1,-1.114282837E1,4.031524992E1
1.641357425E1,3.721650787E1,1.011641281E1,-6.717730408E0,3.914764576E1
1.642363225E1,3.594774628E1,1.016027161E1,-1.633852386E0,3.739172442E1
1.643368925E1,3.401586365E1,1.025128235E1,2.231409760E0,3.559700773E1
1.644374725E1,3.214954468E1,1.057251434E1,3.803889771E0,3.405643639E1
1.645380525E1,2.968656647E1,1.061876816E1,3.089126129E0,3.167953860E1
1.646386225E1,2.668605606E1,1.060799057E1,1.669927368E0,2.876566894E1
1.647392025E1,2.444341965E1,1.061367874E1,7.565267944E-1,2.665901861E1
1.648397725E1,2.323767700E1,1.032418076E1,4.360432434E-1,2.543164317E1
1.649403525E1,2.261646881E1,1.052805679E1,5.306465149E-1,2.495247938E1
1.650409325E1,2.131372787E1,1.096859070E1,4.857398987E-1,2.397542327E1
1.651415025E1,1.924158691E1,1.072190369E1,6.239025879E-1,2.203604184E1
1.652420825E1,1.710193634E1,1.042821442E1,7.899073792E-1,2.004614268E1
1.653426625E1,1.531135986E1,1.035142410E1,7.541317749E-1,1.849752515E1
1.654432325E1,1.402598282E1,1.023870850E1,4.655319214E-1,1.737170302E1
1.655438125E1,1.318128937E1,1.004935226E1,1.049317932E-1,1.657549037E1
1.656443825E1,1.230381409E1,9.725126495E0,-2.383044434E-1,1.568498376E1
1.657449625E1,1.144564865E1,9.151369629E0,-8.845106506E-1,1.468103533E1
1.658455425E1,1.098535583E1,8.615933075E0,-1.534010010E0,1.404512486E1
1.659461125E1,1.132604736E1,8.410859528E0,-2.586621094E0,1.434268160E1
1.660466925E1,1.122979752E1,8.248447266E0,-4.087100830E0,1.452066210E1
1.661472625E1,9.964179382E0,7.799081726E0,-4.721182251E0,1.350555843E1
1.662478425E1,8.301287384E0,6.981481934E0,-4.507277069E0,1.174597841E1
1.663484225E1,6.527176666E0,5.994135132E0,-3.812721405E0,9.647307175E0
1.664489925E1,5.097499695E0,5.483397217E0,-1.825903015E0,7.706235786E0
1.665495725E1,5.496270447E0,5.253924408E0,7.482939148E-1,7.640199886E0
1.666501425E1,6.948700104E0,5.278173981E0,2.410736847E0,9.052911457E0
1.667507225E1,8.925189972E0,5.461392975E0,3.332070923E0,1.098128070E1
1.668513021E1,1.187465652E1,6.310427399E0,3.678899689E0,1.394142261E1
1.669518721E1,1.429302750E1,7.302115173E0,3.005899200E0,1.632932794E1
1.670524521E1,1.540671158E1,7.466922455E0,1.508862305E0,1.718715678E1
1.671530221E1,1.505539215E1,7.163353729E0,-6.960525513E-2,1.667283162E1
1.672536021E1,1.335298233E1,6.903643799E0,-1.138981476E0,1.507513561E1
1.673541821E1,1.216879486E1,6.437363434E0,-8.569679260E-1,1.379324510E1
1.674547521E1,1.211775101E1,5.667813721E0,3.402424622E-1,1.338206885E1
1.675553321E1,1.268222717E1,4.915029144E0,2.135309601E0,1.376793175E1
1.676559021E1,1.319895264E1,4.669090576E0,4.592449951E0,1.473442751E1
