"Time (s)","Acceleration x (m/s^2)","Acceleration y (m/s^2)","Acceleration z (m/s^2)","Absolute acceleration (m/s^2)"
9.072916582E-4,-1.796713715E0,3.355122986E0,7.883506165E0,8.754124735E0
1.089229167E-2,-1.736239471E0,3.219355316E0,8.025710449E0,8.819909544E0
2.087729167E-2,-1.603615265E0,3.194506989E0,8.274942169E0,9.013940577E0
3.086229166E-2,-1.290316772E0,3.281176758E0,8.763376465E0,9.446047076E0
4.084729166E-2,-9.692344666E-1,3.448678436E0,9.895023193E0,1.052351094E1
5.083129166E-2,-7.351213074E-1,3.364403687E0,1.079270645E1,1.132881848E1
6.081629166E-2,-6.194119263E-1,3.153941345E0,1.090691895E1,1.137065952E1
7.080129166E-2,-5.965095520E-1,3.106190643E0,1.034064651E1,1.081356622E1
8.078629167E-2,-7.668553162E-1,3.147504730E0,9.855355682E0,1.037414520E1
9.077129167E-2,-8.514294434E-1,3.274590454E0,9.197623444E0,9.800211822E0
1.007552917E-1,-9.934840393E-1,3.495081940E0,8.747958527E0,9.472559669E0
1.107402917E-1,-9.894424438E-1,3.669768677E0,8.491392059E0,9.303221893E0
1.207252917E-1,-9.309141541E-1,3.771107941E0,8.462651825E0,9.311516105E0
1.307102917E-1,-8.346643066E-1,3.778742065E0,8.572373657E0,9.405378579E0
1.406952917E-1,-7.303312683E-1,3.706143036E0,8.728349304E0,9.510676187E0
1.506792917E-1,-6.879693604E-1,3.603157196E0,8.961714020E0,9.683406518E0
1.606642917E-1,-6.325845337E-1,3.481759644E0,9.191935272E0,9.849593263E0
1.706492917E-1,-5.887257385E-1,3.343896332E0,9.379944305E0,9.975549902E0
1.806342917E-1,-6.864724731E-1,3.237168274E0,9.552834778E0,1.010975545E1
1.906192917E-1,-9.418414307E-1,3.091521149E0,9.584568787E0,1.011476777E1
2.006032917E-1,-1.046922913E0,3.030298462E0,9.192534027E0,9.735575905E0
2.105882917E-1,-1.174906769E0,3.048410797E0,8.923244019E0,9.502499572E0
2.205732917E-1,-1.055754547E0,3.035387878E0,8.744216309E0,9.316089098E0
2.305582917E-1,-8.029302979E-1,3.045117645E0,8.623118134E0,9.180174556E0
2.405432917E-1,-7.494914246E-1,3.060385895E0,8.663384399E0,9.218564339E0
2.505272917E-1,-6.414161682E-1,3.024161224E0,8.762478333E0,9.291823951E0
2.605122917E-1,-4.700225830E-1,2.944377136E0,8.904981995E0,9.390898907E0
2.704972917E-1,-2.978805542E-1,2.875819702E0,9.194030914E0,9.637908292E0
2.804822917E-1,-2.014810181E-1,2.808310089E0,9.476942596E0,9.886336082E0
2.904672917E-1,-1.570234680E-1,2.731370087E0,9.577982483E0,9.961063566E0
3.004522917E-1,-1.829196167E-1,2.650987244E0,9.546697540E0,9.909622943E0
3.104362917E-1,-1.998344421E-1,2.597997437E0,9.404792633E0,9.759080333E0
3.204212917E-1,-2.151026917E-1,2.619851990E0,9.307494965E0,9.671574646E0
3.304062917E-1,-1.350192261E-1,2.678230591E0,9.360634460E0,9.737177558E0
3.403912917E-1,7.319778442E-2,2.733914795E0,9.592502289E0,9.974755545E0
3.503762917E-1,2.451901245E-1,2.757715302E0,9.765093384E0,1.014998328E1
3.603602917E-1,3.683839417E-1,2.780467987E0,9.825567627E0,1.021804718E1
3.703452917E-1,4.327500916E-1,2.780917053E0,9.789642334E0,1.018616068E1
3.803302917E-1,4.613406372E-1,2.754272461E0,9.697134705E0,1.009124737E1
3.903152917E-1,4.881349182E-1,2.718945923E0,9.555379486E0,9.946668777E0
4.003002917E-1,4.593946838E-1,2.761906586E0,9.449848938E0,9.855902618E0
4.102842917E-1,4.757107544E-1,2.753973083E0,9.346114655E0,9.755025761E0
4.202700417E-1,5.179229736E-1,2.736609192E0,9.200766907E0,9.613084091E0
4.302550417E-1,5.704637146E-1,2.802921295E0,9.059311066E0,9.500153347E0
4.402400417E-1,6.171665955E-1,2.883753204E0,8.975934448E0,9.447980015E0
4.502250417E-1,6.908134460E-1,2.944377136E0,8.915759583E0,9.414741041E0
4.602090417E-1,7.714956665E-1,2.949466553E0,8.749305725E0,9.265252786E0
4.701940417E-1,8.032296753E-1,2.891087952E0,8.621172180E0,9.128426875E0
4.801790417E-1,8.120613098E-1,2.771037598E0,8.463250580E0,8.942298548E0
4.901640417E-1,7.503895569E-1,2.560425568E0,8.302933960E0,8.721099467E0
5.001490417E-1,6.815327454E-1,2.236499176E0,8.089178467E0,8.420286439E0
5.101330417E-1,5.028044128E-1,2.004631348E0,7.878267059E0,8.144841986E0
5.201180417E-1,2.201921082E-1,2.075284424E0,7.979157257E0,8.247559672E0
5.301030417E-1,7.918533325E-2,2.210603027E0,8.368497620E0,8.655910609E0
5.400880417E-1,-9.011260986E-2,2.213746490E0,8.750353546E0,9.026487744E0
5.500730417E-1,-4.236190796E-1,2.105072479E0,8.920399933E0,9.175201264E0
5.600570417E-1,-8.327183533E-1,1.840722198E0,8.773106232E0,9.002725755E0
5.700420417E-1,-1.266516266E0,1.535955963E0,8.492739258E0,8.722949288E0
5.800270417E-1,-1.687590637E0,1.265019379E0,8.427774353E0,8.687670386E0
5.900120417E-1,-1.788929901E0,1.045276337E0,8.712781677E0,8.955748845E0
5.999970417E-1,-1.466051331E0,8.231382751E-1,9.033265228E0,9.188402680E0
6.099810417E-1,-9.650431824E-1,6.240522766E-1,9.399703217E0,9.469697469E0
6.199660417E-1,-6.023474121E-1,4.228706360E-1,9.525292053E0,9.553681525E0
6.299510417E-1,-5.358856201E-1,4.288581848E-1,9.468560028E0,9.493404118E0
6.399360417E-1,-7.879614258E-1,6.644682312E-1,9.346414032E0,9.403076970E0
6.499210417E-1,-1.164877625E0,8.837622070E-1,9.098978577E0,9.215714115E0
6.599060417E-1,-1.318458252E0,8.705895996E-1,9.191186829E0,9.325994517E0
6.698900417E-1,-1.265468445E0,7.903564453E-1,9.527836761E0,9.643948727E0
6.798750417E-1,-1.314266968E0,7.309300232E-1,9.514963531E0,9.633072582E0
6.898600417E-1,-1.250499573E0,7.899073792E-1,9.551936646E0,9.665774492E0
6.998450417E-1,-9.517208862E-1,8.138575745E-1,9.487271118E0,9.569558509E0
7.098300417E-1,-7.210505676E-1,6.631210327E-1,9.418264618E0,9.469073441E0
7.198140417E-1,-6.096821594E-1,4.116439819E-1,9.555080109E0,9.583356353E0
7.297990417E-1,-5.846841431E-1,1.814227295E-1,9.691147156E0,9.710463581E0
7.397840417E-1,-6.849755859E-1,1.092727661E-2,9.837093658E0,9.860918953E0
7.497690417E-1,-6.563850403E-1,-7.095245361E-2,9.874515839E0,9.896561960E0
7.597540417E-1,-5.333409119E-1,-1.558259583E-1,9.860744476E0,9.876386783E0
7.697380417E-1,-4.435276794E-1,-1.459465027E-1,9.864337006E0,9.875381600E0
7.797230417E-1,-3.252735901E-1,1.103205872E-1,1.013497421E1,1.014079266E1
7.897080417E-1,-9.924362183E-2,6.592291260E-1,1.064840652E1,1.066925461E1
7.996930417E-1,2.368075562E-1,9.439370728E-1,1.084210373E1,1.088569283E1
8.096780417E-1,5.610333252E-1,7.271878052E-1,1.082039886E1,1.085930901E1
8.196620417E-1,8.554710388E-1,3.421884155E-1,1.098520615E1,1.102377783E1
8.296470417E-1,1.017434235E0,1.122665405E-2,1.113743958E1,1.118382129E1
8.396320417E-1,1.207389221E0,-1.652563477E-1,1.090003326E1,1.096794527E1
8.496170417E-1,1.313518524E0,-2.049238586E-1,1.034408936E1,1.042916628E1
8.596020417E-1,1.523681488E0,-2.014810181E-1,9.639205170E0,9.760966970E0
8.695860417E-1,1.933828583E0,-1.692979431E-1,8.893905029E0,9.103290694E0
8.795710417E-1,2.451901245E0,2.604583740E-2,8.399483185E0,8.750075192E0
8.895560417E-1,3.104843445E0,2.646496582E-1,8.016729126E0,8.601048665E0
8.995410417E-1,3.418890381E0,2.766247559E-1,7.811805267E0,8.531684138E0
9.095260417E-1,3.362008667E0,3.032693481E-1,7.872129822E0,8.565366455E0
9.195100417E-1,3.269800415E0,4.743635559E-1,8.229287109E0,8.867794645E0
9.294950417E-1,2.670446777E0,6.307882690E-1,8.913663940E0,9.326445447E0
9.394800417E-1,2.712808685E0,7.647596741E-1,9.200766907E0,9.622801047E0
9.494650417E-1,3.263663177E0,7.982899475E-1,9.617350616E0,1.018735476E1
9.594500417E-1,4.126918030E0,8.192463684E-1,1.079839462E1,1.158913040E1
9.694350417E-1,5.143154755E0,8.342152405E-1,1.163934586E1,1.275234597E1
9.794190417E-1,6.103108521E0,7.435038757E-1,1.198362991E1,1.346878308E1
9.894040417E-1,6.978338470E0,6.306385803E-1,1.210742249E1,1.398873090E1
9.993890417E-1,7.268734589E0,6.773414612E-1,1.142214752E1,1.355576438E1
1.009374042E0,7.131170654E0,7.432044983E-1,1.025218048E1,1.251052167E1
1.019359042E0,6.689888306E0,7.494914246E-1,9.325607300E0,1.150144749E1
1.029343042E0,5.969885559E0,7.923023987E-1,8.169710999E0,1.014945587E1
1.039328042E0,5.437742157E0,1.020128632E0,6.821614380E0,8.783172829E0
1.049313042E0,5.279221802E0,1.284927979E0,5.417983246E0,7.673054489E0
1.059298042E0,5.283562775E0,1.384470978E0,4.190835114E0,6.884467621E0
1.069283042E0,5.247038727E0,1.382225647E0,3.586691437E0,6.504330757E0
1.079267042E0,4.738546143E0,1.427132263E0,3.690725098E0,6.173489920E0
1.089252042E0,4.421954498E0,1.708996124E0,4.607568512E0,6.610902883E0
1.099237042E0,4.105512543E0,2.110161896E0,5.176685028E0,6.935854983E0
1.109222042E0,3.584745483E0,2.533331909E0,5.189558258E0,6.797035064E0
1.119207042E0,3.608246613E0,2.483335876E0,5.595963135E0,7.106419921E0
1.129191042E0,4.461023254E0,1.828447723E0,5.812413025E0,7.551694825E0
1.139176042E0,5.854325867E0,1.043480072E0,5.815855865E0,8.317821918E0
1.149161042E0,6.787934418E0,7.541317749E-1,5.990392914E0,9.084579003E0
1.159146042E0,7.440128174E0,1.003962250E0,6.194867706E0,9.733438927E0
1.169131042E0,7.492818604E0,1.077908478E0,6.028264160E0,9.676992616E0
1.179115042E0,7.016658783E0,7.282356262E-1,5.550757141E0,8.976342933E0
1.189100042E0,6.935228119E0,1.064286804E0,4.989873505E0,8.609816087E0
1.199085042E0,7.498057709E0,1.883832550E0,4.331991577E0,8.862045221E0
1.209070042E0,8.149652710E0,2.575544128E0,4.009861450E0,9.440829185E0
1.219055042E0,8.580307159E0,2.777773590E0,3.904779968E0,9.827766973E0
1.229039042E0,8.748407593E0,3.020568695E0,3.904779968E0,1.004518677E1
1.239024042E0,8.819060669E0,2.700983276E0,4.089795227E0,1.008947802E1
1.249009042E0,9.378297729E0,1.951641541E0,4.592899017E0,1.062337491E1
1.258994042E0,9.768236847E0,1.413510590E0,5.257516937E0,1.118293108E1
1.268979042E0,9.426647186E0,1.389859772E0,5.780229950E0,1.114470482E1
1.278964042E0,8.918903046E0,1.950593719E0,6.210435333E0,1.104179127E1
1.288948042E0,8.630003815E0,2.502196655E0,6.368356934E0,1.101335208E1
1.298933042E0,8.768765259E0,2.667752380E0,6.305487671E0,1.112507626E1
1.308918042E0,9.253756714E0,2.775528259E0,6.322851562E0,1.154616916E1
1.318903042E0,9.601333923E0,2.986289978E0,6.268664246E0,1.184903761E1
1.328888042E0,9.611363068E0,3.218157806E0,6.177354126E0,1.186990074E1
1.338872042E0,9.441466370E0,3.393592987E0,6.226751404E0,1.180805630E1
1.348857042E0,9.556277618E0,3.358266449E0,6.025869141E0,1.178607205E1
1.358842042E0,1.002390518E1,3.181484070E0,5.696254578E0,1.196026054E1
1.368827042E0,9.851912842E0,3.184777222E0,5.808670807E0,1.187196905E1
1.378812042E0,8.919352112E0,2.635569305E0,5.592819672E0,1.085268167E1
1.388796042E0,8.343649292E0,2.001487885E0,5.263354797E0,1.006604893E1
1.398781042E0,8.951086121E0,1.883832550E0,5.207969971E0,1.052585954E1
1.408766042E0,9.970166931E0,1.914668427E0,5.500611420E0,1.154672723E1
1.418750417E0,1.096140564E1,1.676214294E0,6.081852722E0,1.264717520E1
1.428735417E0,1.126677063E1,1.097068634E0,6.523733826E0,1.306532751E1
1.438719417E0,1.104612946E1,4.638853455E-1,6.490951996E0,1.282047672E1
1.448704417E0,1.056607773E1,-6.750961304E-2,6.073769531E0,1.218758518E1
1.458689417E0,1.024544449E1,-3.360511780E-1,5.470673676E0,1.161939472E1
1.468674417E0,1.024155258E1,-4.484674072E-1,4.707859955E0,1.128071220E1
1.478659417E0,1.032537827E1,-7.637118530E-1,3.783382416E0,1.102318804E1
1.488643417E0,1.035531601E1,-1.296304321E0,2.929707642E0,1.083956463E1
1.498628417E0,1.055769516E1,-1.783990173E0,2.429447937E0,1.097951571E1
1.508613417E0,1.113145203E1,-2.163750458E0,2.185006256E0,1.154838918E1
1.518598417E0,1.131182693E1,-2.323168945E0,2.351011047E0,1.178481207E1
1.528583417E0,1.089599167E1,-1.826651459E0,3.119812317E0,1.148009229E1
1.538567417E0,1.041773621E1,-8.111631775E-1,4.020489349E0,1.119605055E1
1.548552417E0,1.007884094E1,1.431024170E-1,4.416266327E0,1.100485899E1
1.558537417E0,9.419761505E0,9.107061768E-1,4.558320923E0,1.050426495E1
1.568522417E0,8.802744598E0,1.483265533E0,4.479285278E0,9.987611612E0
1.578507417E0,8.523275757E0,1.819466400E0,4.061354370E0,9.615159225E0
1.588491417E0,8.394393768E0,1.893113251E0,3.444786530E0,9.269103449E0
1.598476417E0,8.316405945E0,1.723066864E0,2.966082001E0,8.996066345E0
1.608461417E0,8.205935669E0,1.481469269E0,2.804567871E0,8.797598101E0
1.618446417E0,8.305029602E0,1.304986267E0,2.905009003E0,8.894694101E0
1.628431417E0,8.774303741E0,1.110390930E0,2.875969391E0,9.300138392E0
1.638415417E0,9.523196411E0,8.394543457E-1,2.613115997E0,9.910818770E0
1.648400417E0,1.023721161E1,4.408332825E-1,2.330952759E0,1.050848116E1
1.658385417E0,1.075902649E1,3.457809448E-2,1.942061462E0,1.093295245E1
1.668370417E0,1.126242966E1,-3.207829285E-1,1.410516815E0,1.135494523E1
1.678355417E0,1.158710449E1,-6.773414612E-1,9.672885132E-1,1.164712106E1
1.688340417E0,1.146630569E1,-1.059646454E0,7.144642639E-1,1.153730801E1
1.698324417E0,1.091335556E1,-1.366658020E0,6.083349609E-1,1.101540536E1
1.708309417E0,1.058269318E1,-1.369801483E0,5.493576050E-1,1.068510855E1
1.718294417E0,1.041519150E1,-1.175505524E0,5.933660889E-1,1.049810033E1
1.728279417E0,9.739047546E0,-1.219663696E0,7.222480774E-1,9.841659867E0
1.738264417E0,9.087901611E0,-1.265917511E0,9.536668396E-1,9.225073619E0
1.748248417E0,8.884324951E0,-1.027463379E0,1.312770081E0,9.039373657E0
1.758233417E0,8.986113281E0,-6.258485413E-1,1.467548218E0,9.126643198E0
1.768218417E0,9.062005463E0,-4.276606750E-1,1.424886932E0,9.183307652E0
1.778203417E0,8.956474915E0,-5.867797852E-1,1.372046814E0,9.079937548E0
1.788188417E0,8.671916656E0,-7.453001404E-1,1.342857513E0,8.806865339E0
1.798172417E0,8.347241821E0,-6.459068298E-1,1.198108521E0,8.457488143E0
1.808157417E0,8.010142822E0,-5.716612244E-1,1.021924896E0,8.095277332E0
1.818142417E0,7.906707916E0,-3.444337463E-1,1.056952057E0,7.984473203E0
1.828127417E0,7.796686707E0,-1.312770081E-1,1.210083618E0,7.891125371E0
1.838112417E0,7.481442261E0,-8.846603394E-2,1.466350708E0,7.624302521E0
1.848096417E0,7.481442261E0,-3.228785706E-1,1.607357483E0,7.658970358E0
1.858081417E0,7.780220947E0,-6.475534058E-1,1.678908691E0,7.985605662E0
1.868066417E0,8.259524231E0,-9.958790588E-1,1.299298096E0,8.420195435E0
1.878051417E0,8.754694519E0,-1.309327240E0,8.568182373E-1,8.893433051E0
1.888036417E0,9.241182861E0,-1.504820709E0,5.755531311E-1,9.380576072E0
1.898020417E0,9.521998901E0,-1.730551300E0,3.830534363E-1,9.685556299E0
1.908005417E0,9.467362518E0,-2.049388275E0,2.424957275E-1,9.689672313E0
1.917990417E0,9.582024078E0,-2.283351746E0,-8.951385498E-2,9.850730600E0
1.927975417E0,9.866582336E0,-2.514620819E0,-2.728825378E-1,1.018563841E1
1.937960417E0,1.034753220E1,-2.879711609E0,-2.302212524E-1,1.074323803E1
1.947944417E0,1.057161621E1,-2.761607208E0,1.549278259E-1,1.092746752E1
1.957929417E0,1.003797592E1,-2.160157928E0,9.015751648E-1,1.030728289E1
1.967914417E0,9.058862000E0,-1.444945221E0,1.323847046E0,9.268409703E0
1.977899417E0,8.466543732E0,-8.884025574E-1,1.396146698E0,8.626751849E0
1.987884417E0,8.390052795E0,-9.508227539E-1,1.132844238E0,8.519412297E0
1.997869417E0,8.494834900E0,-1.398990784E0,6.255491638E-1,8.631958465E0
2.007853417E0,8.564589844E0,-1.775008850E0,2.315684509E-1,8.749655968E0
2.017838417E0,8.785680084E0,-1.921554108E0,-2.993774414E-2,8.993410977E0
2.027823417E0,9.101672974E0,-1.852397919E0,-1.493893433E-1,9.289464255E0
2.037808417E0,9.487720184E0,-1.824555817E0,-8.966354370E-2,9.661981048E0
2.047793417E0,9.884844360E0,-2.052980804E0,-2.993774414E-2,1.009582956E1
2.057777417E0,1.058628571E1,-2.581681366E0,-1.592687988E-1,1.089770115E1
2.067762417E0,1.126512405E1,-3.057990875E0,-1.303788757E-1,1.167353103E1
2.077747417E0,1.167018173E1,-3.184028778E0,3.442840576E-3,1.209674306E1
2.087732417E0,1.189396637E1,-3.209326172E0,3.472778320E-2,1.231939189E1
2.097717417E0,1.215921478E1,-3.257226562E0,-2.050735474E-2,1.258794858E1
2.107701417E0,1.241069183E1,-3.256627808E0,-4.790039063E-2,1.283094661E1
2.117686417E0,1.239916580E1,-3.241209869E0,-1.073268127E-1,1.281625035E1
2.127671417E0,1.223136475E1,-3.278781738E0,-2.601589966E-1,1.266587446E1
2.137656417E0,1.226025467E1,-3.363655243E0,-3.156935120E-1,1.271721996E1
2.147641417E0,1.271066803E1,-3.731739807E0,-2.567161560E-1,1.324963648E1
2.157625417E0,1.348620529E1,-4.408482513E0,-3.263214111E-1,1.419221395E1
2.167610417E0,1.419662796E1,-5.045857086E0,-2.053729248E-1,1.506808207E1
2.177595417E0,1.445124847E1,-5.282065887E0,3.845503235E-1,1.539112346E1
2.187580417E0,1.408316391E1,-4.843028870E0,1.316362610E0,1.495069379E1
2.197565417E0,1.367466339E1,-3.902983704E0,2.175126801E0,1.438613490E1
2.207549417E0,1.319326447E1,-2.610421600E0,2.640509033E0,1.370579498E1
2.217534417E0,1.243673767E1,-1.203946381E0,2.661166077E0,1.277512175E1
2.227519417E0,1.147349075E1,-6.286926270E-2,2.478695526E0,1.173835057E1
2.237504417E0,1.044512924E1,6.222560120E-1,2.158810730E0,1.068402505E1
2.247489417E0,9.322164459E0,7.252418518E-1,1.828447723E0,9.527431292E0
2.257473417E0,8.422385559E0,2.022294617E-1,1.435215454E0,8.546187376E0
2.267458417E0,8.270451508E0,-7.960446167E-1,1.124012604E0,8.384358026E0
2.277443417E0,8.714278564E0,-2.213147736E0,6.638694763E-1,9.015397744E0
2.287428417E0,8.785380707E0,-2.989882507E0,4.558021545E-1,9.291397482E0
2.297413417E0,8.688232727E0,-3.171903992E0,4.397854614E-1,9.259577426E0
2.307397417E0,8.788075104E0,-3.325783997E0,4.960684204E-1,9.409420126E0
2.317382417E0,9.007369080E0,-3.643423462E0,6.343807983E-1,9.737025791E0
2.327367417E0,9.294022980E0,-3.871549072E0,7.701484680E-1,1.009756822E1
2.337352417E0,9.615853729E0,-3.986060944E0,8.198451233E-1,1.044152627E1
2.347337417E0,9.760902100E0,-4.032314758E0,8.171507263E-1,1.059256850E1
2.357322417E0,9.717342682E0,-3.937711487E0,8.560697937E-1,1.051975171E1
2.367306417E0,9.716294861E0,-4.042044525E0,8.933422852E-1,1.056137161E1
2.377291417E0,9.549990692E0,-4.018992462E0,1.002016296E0,1.040954655E1
2.387276417E0,9.084758148E0,-3.599115601E0,1.142574005E0,9.838289438E0
2.397261417E0,8.700207825E0,-3.113375702E0,1.195414124E0,9.317496412E0
2.407246417E0,8.449778595E0,-2.834056549E0,1.187480621E0,8.991148150E0
2.417230333E0,8.232729950E0,-2.733316040E0,1.055754547E0,8.738619838E0
2.427215333E0,8.164920959E0,-2.742896118E0,7.836204529E-1,8.648900185E0
2.437200333E0,8.112230530E0,-2.735112305E0,6.363267517E-1,8.584523005E0
2.447185333E0,7.919431458E0,-2.664159851E0,5.993536377E-1,8.377014212E0
2.457170333E0,7.740104370E0,-2.578388214E0,4.881349182E-1,8.172856119E0
2.467154333E0,7.693551178E0,-2.490071869E0,3.480262756E-1,8.093967502E0
2.477139333E0,7.697443085E0,-2.446213074E0,2.356100464E-1,8.080228990E0
2.487124333E0,7.519463196E0,-2.469414825E0,1.329235840E-1,7.915680957E0
2.497109333E0,7.209158478E0,-2.493365021E0,-3.293151855E-2,7.628231746E0
2.507094333E0,6.976392517E0,-2.510429535E0,-2.065704346E-1,7.417208393E0
2.517078333E0,6.933880920E0,-2.617756348E0,-3.125500488E-1,7.418156135E0
2.527063333E0,6.930587769E0,-2.716401215E0,-2.647993469E-1,7.448624106E0
2.537048333E0,6.883435822E0,-2.726879425E0,-2.065704346E-1,7.406769299E0
2.547033333E0,6.749464417E0,-2.724334717E0,-2.064207458E-1,7.281475062E0
2.557018333E0,6.691983948E0,-2.670147400E0,-2.206411743E-1,7.208399186E0
2.567002333E0,6.788084106E0,-2.595752106E0,-2.185455322E-1,7.270748034E0
2.576987333E0,6.996899872E0,-2.535427551E0,-1.992356873E-1,7.444776393E0
2.586972333E0,7.230414276E0,-2.523153076E0,-2.032772827E-1,7.660712350E0
2.596957333E0,7.460785217E0,-2.496209106E0,-3.206332397E-1,7.873828906E0
2.606942333E0,7.785310364E0,-2.492167511E0,-4.589456177E-1,8.187343125E0
2.616926333E0,8.158783722E0,-2.497705994E0,-4.200265503E-1,8.542874771E0
2.626911333E0,8.409961395E0,-2.551294556E0,-4.164340210E-1,8.798293691E0
2.636896333E0,8.582552490E0,-2.648891602E0,-6.165678406E-1,9.003165547E0
2.646881333E0,8.835526428E0,-2.665057983E0,-8.632548523E-1,9.268995105E0
2.656866333E0,9.092841339E0,-2.783162384E0,-1.115180969E0,9.574413040E0
2.666850333E0,9.505383453E0,-3.060834961E0,-1.202299805E0,1.005815838E1
2.676835333E0,1.007090744E1,-3.368594971E0,-1.079555054E0,1.067408300E1
2.686820333E0,1.047371979E1,-3.652255096E0,-8.110134888E-1,1.112184860E1
2.696805333E0,1.066696793E1,-3.814367981E0,-4.276606750E-1,1.133651187E1
2.706790333E0,1.091096054E1,-3.961811371E0,-1.440005493E-1,1.160886495E1
2.716775333E0,1.115166000E1,-4.121978302E0,1.354682922E-1,1.188985188E1
2.726759333E0,1.129057114E1,-4.218078461E0,5.028044128E-1,1.206324976E1
2.736744333E0,1.147678391E1,-4.184548187E0,7.804769897E-1,1.224075801E1
2.746729333E0,1.172436905E1,-4.118685150E0,7.197033691E-1,1.244758490E1
2.756714333E0,1.225845840E1,-4.251608734E0,2.594105530E-1,1.297741396E1
2.766698333E0,1.302696030E1,-4.728067932E0,-3.670367432E-1,1.386329820E1
2.776683333E0,1.360909973E1,-5.208868103E0,-6.617738342E-1,1.458690670E1
2.786668333E0,1.380743729E1,-5.304070129E0,-5.188211060E-1,1.480025877E1
2.796653333E0,1.348246307E1,-4.793481903E0,1.399589539E-1,1.430992201E1
2.806638333E0,1.292711792E1,-3.723806305E0,1.060245209E0,1.349448891E1
2.816623333E0,1.255903336E1,-2.475402374E0,1.836979980E0,1.293179922E1
2.826607333E0,1.202239929E1,-1.292711792E0,2.440973969E0,1.233562088E1
2.836592333E0,1.158396103E1,-4.369413757E-1,2.741099854E0,1.191187220E1
2.846577333E0,1.104747665E1,-3.412902832E-2,2.850073242E0,1.140924286E1
2.856562333E0,1.044333298E1,3.691323853E-1,2.737956390E0,1.080258615E1
2.866547333E0,1.001088226E1,8.047265625E-1,2.344125366E0,1.031311167E1
2.876531333E0,9.621092834E0,7.144642639E-1,1.748813324E0,9.804806707E0
2.886516333E0,9.480235748E0,3.065625000E-1,1.050365753E0,9.543171309E0
2.896501333E0,9.554930420E0,5.089416504E-2,2.577639771E-1,9.558542138E0
2.906486333E0,9.566606140E0,-1.047821045E-2,-5.890251160E-1,9.584728135E0
2.916471333E0,9.429640961E0,-1.086740112E-1,-1.429826660E0,9.538047125E0
2.926455333E0,9.311087494E0,-2.981799316E-1,-2.206860809E0,9.573687702E0
2.936440333E0,9.159303131E0,-6.161187744E-1,-2.804717560E0,9.598899769E0
2.946425333E0,8.828191681E0,-1.077758789E0,-3.222648468E0,9.459598063E0
2.956410333E0,8.227191467E0,-1.629062347E0,-3.420686646E0,9.057682965E0
2.966395333E0,7.506140900E0,-2.109114075E0,-3.455564117E0,8.528272789E0
2.976379333E0,7.007976837E0,-2.462828522E0,-3.517984314E0,8.219092244E0
2.986364333E0,6.546935577E0,-2.657423859E0,-3.320245514E0,7.806939048E0
2.996349333E0,6.162684631E0,-2.673290863E0,-2.878963165E0,7.308460495E0
3.006334333E0,6.112688599E0,-2.568508759E0,-2.378404083E0,7.044075889E0
3.016319333E0,6.417155457E0,-2.447111206E0,-1.923500061E0,7.132186894E0
3.026303333E0,6.839277649E0,-2.309547272E0,-1.387913818E0,7.350920495E0
3.036288333E0,7.244335327E0,-2.132764893E0,-8.361611938E-1,7.597910631E0
3.046273333E0,7.642357635E0,-1.943258972E0,-2.508782959E-1,7.889538997E0
3.056258333E0,7.972720642E0,-1.573378143E0,2.655477905E-1,8.130824611E0
3.066243333E0,8.417445831E0,-1.097966766E0,3.089575195E-1,8.494373437E0
3.076227333E0,8.604107666E0,-1.260977783E0,9.415420532E-2,8.696527969E0
3.086212333E0,8.533155212E0,-1.641486511E0,9.819580078E-2,8.690158702E0
3.096197333E0,8.430319061E0,-1.709744568E0,2.528242493E-1,8.605662442E0
3.106182333E0,8.265212402E0,-1.621877289E0,3.571572876E-1,8.430408254E0
3.116167333E0,8.188122711E0,-1.540147247E0,3.043171692E-1,8.337266699E0
3.126152333E0,8.424032135E0,-1.328936462E0,4.703219604E-1,8.541170428E0
3.136136333E0,8.707841949E0,-8.741821289E-1,6.704557800E-1,8.777255651E0
3.146121333E0,9.005572815E0,-5.004093933E-1,5.216651917E-1,9.034538497E0
3.156106333E0,9.061406708E0,-4.784051514E-1,3.382965088E-2,9.074089897E0
3.166091333E0,9.146429901E0,-6.840774536E-1,-2.383044434E-1,9.175071166E0
3.176076333E0,9.014703827E0,-8.771759033E-1,-2.302212524E-1,9.060205543E0
3.186060333E0,8.898994446E0,-9.711804199E-1,-1.648072815E-1,8.953348815E0
3.196045333E0,8.889414368E0,-1.090182953E0,-1.555265808E-1,8.957364299E0
3.206030333E0,8.832682343E0,-1.248852997E0,-1.130149841E-1,8.921248991E0
3.216015333E0,8.777596893E0,-1.360520782E0,2.454895020E-2,8.882444859E0
3.226000333E0,8.976084137E0,-1.417103119E0,2.981799316E-1,9.092149303E0
3.235984333E0,9.373507690E0,-1.434017944E0,6.550378418E-1,9.505163253E0
3.245969333E0,9.626331940E0,-1.416953430E0,9.083111572E-1,9.772361679E0
3.255954333E0,9.685009918E0,-1.448388062E0,1.061143341E0,9.850039101E0
3.265939333E0,9.797126770E0,-1.594633942E0,1.032852173E0,9.979645984E0
3.275924333E0,1.010473709E1,-1.784888306E0,8.385562134E-1,1.029537345E1
3.285908333E0,1.040561142E1,-1.895208893E0,6.388714600E-1,1.059607109E1
3.295893333E0,1.072085587E1,-1.772015076E0,4.746629333E-1,1.087667655E1
3.305878333E0,1.116647919E1,-1.497036896E0,2.710862732E-1,1.126964350E1
3.315863333E0,1.169413193E1,-1.317410431E0,2.273771667E-1,1.177030128E1
3.325848333E0,1.218660782E1,-1.235979767E0,2.043251038E-1,1.225082874E1
3.335832333E0,1.262848892E1,-1.307680664E0,-7.125183105E-2,1.269621353E1
3.345817333E0,1.328277832E1,-1.713187408E0,-5.936654663E-1,1.340595575E1
3.355802333E0,1.433449127E1,-2.623743896E0,-1.250050507E0,1.462615118E1
3.365787333E0,1.549472855E1,-3.808380432E0,-1.521585846E0,1.602827495E1
3.375772333E0,1.656036255E1,-4.633015594E0,-1.238374786E0,1.724076603E1
3.385756333E0,1.702649323E1,-4.391717377E0,-4.507127380E-1,1.758953652E1
3.395741333E0,1.668834641E1,-3.133433990E0,5.992039490E-1,1.699053736E1
3.405726333E0,1.581431396E1,-1.616488495E0,1.188977509E0,1.594111755E1
3.415711833E0,1.390353745E1,1.914518738E-1,1.343007202E0,1.396956247E1
3.425696833E0,1.183139648E1,1.958826599E0,1.391057281E0,1.207286150E1
3.435680833E0,1.067954178E1,2.727029114E0,1.414857788E0,1.111265598E1
3.445665833E0,1.023990601E1,2.456391907E0,1.138382721E0,1.059176338E1
3.455650833E0,1.075438614E1,1.117575989E0,3.231779480E-1,1.081712722E1
3.465635833E0,1.091036179E1,-5.041516113E-1,9.595046997E-2,1.092242508E1
3.475620833E0,9.962981873E0,-1.329684906E0,2.303709412E-1,1.005396143E1
3.485604833E0,9.163195038E0,-1.516197052E0,3.604504395E-1,9.294779251E0
3.495589833E0,8.732839966E0,-1.647623749E0,4.772076416E-1,8.899712637E0
3.505574833E0,7.705376587E0,-2.195783844E0,2.647993469E-1,8.016508824E0
3.515559833E0,8.239765320E0,-2.766996002E0,-2.764750671E-1,8.696346236E0
3.525544833E0,9.319619751E0,-2.879262543E0,-4.839436340E-1,9.766251406E0
3.535529833E0,9.084907837E0,-3.264261932E0,-1.631607056E-1,9.654925053E0
3.545513833E0,9.314979401E0,-3.041824493E0,3.737727356E-1,9.806183944E0
3.555498833E0,9.586814117E0,-3.085683289E0,4.349954224E-1,1.008055888E1
3.565483833E0,1.048389862E1,-2.612068176E0,2.106120300E-1,1.080645122E1
3.575468833E0,1.003573059E1,-2.453098755E0,3.444337463E-1,1.033693458E1
3.585453833E0,9.374106445E0,-2.398462372E0,1.454974365E-1,9.677172257E0
3.595437833E0,9.381890259E0,-2.163451080E0,-1.462458801E-1,9.629214571E0
3.605422833E0,9.254654846E0,-2.006726990E0,-5.325924683E-1,9.484684722E0
3.615407833E0,8.886270905E0,-1.872905273E0,-7.075785828E-1,9.109020376E0
3.625392833E0,8.625962219E0,-1.638343048E0,-9.848020935E-1,8.835226500E0
3.635377833E0,8.445287933E0,-1.408121796E0,-1.161883850E0,8.640351228E0
3.645361833E0,8.342900848E0,-1.205742645E0,-1.187480621E0,8.512809179E0
3.655346833E0,8.210875397E0,-1.093925171E0,-1.201102295E0,8.370053392E0
3.665331833E0,8.006849670E0,-1.081501007E0,-1.249601440E0,8.175621679E0
3.675316833E0,7.756869507E0,-1.093027039E0,-1.310973816E0,7.942442005E0
3.685301833E0,7.477400665E0,-1.106798401E0,-1.366658020E0,7.681424188E0
3.695285833E0,7.183412018E0,-1.160087585E0,-1.402134247E0,7.410343573E0
3.705270833E0,6.901997223E0,-1.260528717E0,-1.421743469E0,7.158760563E0
3.715255833E0,6.726562042E0,-1.322948914E0,-1.403032379E0,6.997523176E0
3.725240833E0,6.570137329E0,-1.343007202E0,-1.308129730E0,6.832391694E0
3.735225833E0,6.503226471E0,-1.346150665E0,-1.143023071E0,6.738737114E0
3.745209833E0,6.601721649E0,-1.341660004E0,-9.536668396E-1,6.803841616E0
3.755194833E0,6.705156555E0,-1.347797241E0,-7.420069885E-1,6.879408129E0
3.765179833E0,6.712640991E0,-1.380878448E0,-5.845344543E-1,6.878085118E0
3.775164833E0,6.790479126E0,-1.432521057E0,-4.827461243E-1,6.956706632E0
3.785149833E0,6.860234070E0,-1.527723083E0,-4.302053833E-1,7.041436358E0
3.795133833E0,6.853947144E0,-1.707798615E0,-4.096980286E-1,7.075381264E0
3.805118833E0,6.927444305E0,-1.950743408E0,-4.129911804E-1,7.208706275E0
3.815103833E0,7.183561707E0,-2.255809021E0,-4.604425049E-1,7.543489937E0
3.825088833E0,7.579787750E0,-2.592908020E0,-5.069956970E-1,8.027041733E0
3.835073833E0,8.120313721E0,-2.818488922E0,-4.769082642E-1,8.608763919E0
3.845057833E0,8.727600861E0,-2.962339783E0,-4.577481079E-1,9.228001252E0
3.855042833E0,9.499545593E0,-3.123404846E0,-5.563929749E-1,1.001531814E1
3.865027833E0,1.041683807E1,-3.341950378E0,-7.601193237E-1,1.096617204E1
3.875012833E0,1.135808075E1,-3.545227661E0,-9.189390564E-1,1.193394681E1
3.884997833E0,1.220846237E1,-3.614084473E0,-9.003776550E-1,1.276396647E1
3.894981833E0,1.277892609E1,-3.597618713E0,-8.068222046E-1,1.330017949E1
3.904966833E0,1.300271072E1,-3.603905640E0,-7.396119690E-1,1.351316572E1
3.914951833E0,1.304806641E1,-3.673211517E0,-7.204518127E-1,1.357437183E1
3.924936833E0,1.314371750E1,-3.742218018E0,-8.294252014E-1,1.369121804E1
3.934921833E0,1.350581451E1,-3.931574249E0,-1.211730194E0,1.411851946E1
3.944905833E0,1.417896469E1,-4.382137299E0,-1.794169006E0,1.494875277E1
3.954890833E0,1.489866806E1,-5.007686462E0,-2.281854858E0,1.588250910E1
3.964875833E0,1.519385422E1,-5.433999939E0,-2.186652832E0,1.628382670E1
3.974860833E0,1.490705063E1,-5.346132660E0,-1.657652893E0,1.592322536E1
3.984845833E0,1.421908127E1,-4.476441193E0,-6.194119263E-1,1.491993529E1
3.994830833E0,1.346884140E1,-3.084186401E0,5.863307190E-1,1.382988352E1
4.004814833E0,1.262310013E1,-1.645977173E0,1.351988525E0,1.280155345E1
4.014799833E0,1.171493866E1,-3.052153015E-1,1.909728699E0,1.187350024E1
4.024784833E0,1.115719849E1,6.128256226E-1,2.008074188E0,1.135301701E1
4.034769833E0,1.084764221E1,1.008752289E0,1.608554993E0,1.101255519E1
4.044754833E0,1.062550415E1,8.696914673E-1,1.118923187E0,1.071959378E1
4.054738833E0,1.044512924E1,4.815486145E-1,6.363267517E-1,1.047556804E1
4.064723833E0,1.003378464E1,1.405577087E-1,1.118174744E-1,1.003539206E1
4.074708833E0,9.592202911E0,-2.365081787E-2,-5.498066711E-1,9.607976032E0
4.084693833E0,9.232500916E0,-1.139131165E-1,-1.404678955E0,9.339441756E0
4.094678833E0,8.869206390E0,-9.160949707E-2,-2.238295441E0,9.147741840E0
4.104662833E0,8.522677002E0,-3.038681030E-2,-2.882855072E0,8.997099533E0
4.114647833E0,8.143066406E0,-7.439529419E-2,-3.332519989E0,8.798906445E0
4.124632833E0,7.773484955E0,-3.275189209E-1,-3.588936768E0,8.568243934E0
4.134617833E0,7.454049225E0,-8.652008057E-1,-3.692970428E0,8.363578951E0
4.144602833E0,7.143744507E0,-1.487007751E0,-3.698508911E0,8.180662919E0
4.154586833E0,6.758296051E0,-1.966909790E0,-3.550017700E0,7.883268694E0
4.164571833E0,6.359525299E0,-2.315085754E0,-3.346590729E0,7.550023416E0
4.174556833E0,6.036047974E0,-2.561922455E0,-2.960244141E0,7.194467817E0
4.184541833E0,5.805677032E0,-2.681673431E0,-2.426304474E0,6.839898508E0
4.194526833E0,5.782026215E0,-2.701881409E0,-1.850451965E0,6.645010366E0
4.204510833E0,5.894442444E0,-2.662812653E0,-1.257984009E0,6.589199247E0
4.214495833E0,6.178701324E0,-2.554887085E0,-7.238946533E-1,6.725163310E0
4.224480833E0,6.423292694E0,-2.353705444E0,-2.619552612E-1,6.845965156E0
4.234465833E0,6.668033752E0,-2.104174347E0,1.981878662E-1,6.994962633E0
4.244450833E0,6.869514771E0,-1.842368774E0,5.472619629E-1,7.133305793E0
4.254434833E0,6.982230377E0,-1.623972931E0,8.050259399E-1,7.213660367E0
4.264419833E0,7.144043884E0,-1.428629150E0,1.015488281E0,7.355920114E0
4.274404833E0,7.320975952E0,-1.318308563E0,1.179996185E0,7.531734021E0
4.284389833E0,7.394323425E0,-1.271306305E0,1.271455994E0,7.609785738E0
4.294374833E0,7.599247284E0,-1.190324707E0,1.225202179E0,7.788873639E0
4.304358833E0,7.930957489E0,-1.082548828E0,1.041085052E0,8.071917786E0
4.314343833E0,8.311316528E0,-8.912466431E-1,7.677534485E-1,8.394149651E0
4.324328833E0,8.619974670E0,-5.614823914E-1,5.182223511E-1,8.653772599E0
4.334313833E0,8.840466156E0,-2.164498901E-1,2.683918762E-1,8.847187497E0
4.344298833E0,9.085656281E0,-2.290237427E-2,2.424957275E-2,9.085717507E0
4.354282833E0,9.307494965E0,1.122665405E-2,-1.516346741E-1,9.308736844E0
4.364267833E0,9.412127380E0,-7.200027466E-2,-3.370989990E-1,9.418437323E0
4.374252833E0,9.391320648E0,-2.401007080E-1,-5.044509888E-1,9.407923398E0
4.384237833E0,9.341623993E0,-4.147874451E-1,-5.700146484E-1,9.368185745E0
4.394222833E0,9.237290955E0,-5.273533630E-1,-6.483018494E-1,9.275017037E0
4.404206833E0,9.160350952E0,-5.421725464E-1,-7.470964050E-1,9.206743924E0
4.414191833E0,9.274413757E0,-5.105882263E-1,-8.171507263E-1,9.324333016E0
4.424176208E0,9.649982758E0,-4.745132446E-1,-8.997789001E-1,9.703449495E0
4.434161208E0,1.019993912E1,-4.860392761E-1,-9.401948547E-1,1.025470422E1
4.444146208E0,1.063867676E1,-6.048921204E-1,-9.334588623E-1,1.069666691E1
4.454131208E0,1.093012070E1,-7.463479614E-1,-9.113049316E-1,1.099340941E1
4.464115208E0,1.128578110E1,-9.099577332E-1,-8.767268372E-1,1.135629905E1
4.474100208E0,1.163275955E1,-1.048569489E0,-9.039701843E-1,1.171485189E1
4.484085208E0,1.198018707E1,-1.165326691E0,-1.097068634E0,1.208662187E1
4.494070208E0,1.231249603E1,-1.267264709E0,-1.325942688E0,1.244835902E1
4.504055208E0,1.263612305E1,-1.330433350E0,-1.521735535E0,1.279677059E1
4.514039208E0,1.309806244E1,-1.390608215E0,-1.802102509E0,1.329438243E1
4.524024208E0,1.386357056E1,-1.721869354E0,-2.138602753E0,1.413283568E1
4.534009208E0,1.485915024E1,-2.560275879E0,-2.515968018E0,1.528657756E1
4.543994208E0,1.601654343E1,-3.803889771E0,-2.737207947E0,1.668806604E1
4.553979208E0,1.706870544E1,-4.877157898E0,-2.482737122E0,1.792460204E1
4.563963208E0,1.727617401E1,-4.872218170E0,-1.461860046E0,1.800949009E1
4.573948208E0,1.631876495E1,-3.345692596E0,-1.996847534E-1,1.665940043E1
4.583933208E0,1.509520935E1,-1.077160034E0,6.891668701E-1,1.514927622E1
4.593918208E0,1.405577087E1,8.605604553E-1,1.260079651E0,1.413835421E1
4.603903208E0,1.354548203E1,1.947599945E0,1.678759003E0,1.378736598E1
4.613887208E0,1.318757629E1,1.965412903E0,1.765578461E0,1.344962021E1
4.623872208E0,1.284673508E1,1.129850464E0,1.464105377E0,1.297916672E1
4.633857208E0,1.222867035E1,-9.101074219E-2,9.210346985E-1,1.226364409E1
4.643842208E0,1.112351852E1,-1.153201904E0,5.824388123E-1,1.119829335E1
4.653827208E0,9.928254089E0,-1.850152588E0,4.453239441E-1,1.010898646E1
4.663811208E0,8.948541412E0,-2.322420502E0,3.129991150E-1,9.250297230E0
4.673796208E0,8.429420929E0,-2.675985260E0,1.228944397E-1,8.844836762E0
4.683781208E0,8.404422913E0,-2.901266785E0,-1.127156067E-1,8.891815240E0
4.693766208E0,8.595575409E0,-3.100502472E0,-3.568579102E-1,9.144636666E0
4.703751208E0,8.793613586E0,-3.286864929E0,-5.345384216E-1,9.403023572E0
4.713735208E0,8.910819855E0,-3.334765320E0,-6.038442993E-1,9.533519715E0
4.723720208E0,8.986412659E0,-3.266357574E0,-5.644761658E-1,9.578274251E0
4.733705208E0,8.950038300E0,-3.158581696E0,-4.998106384E-1,9.504190369E0
4.743690208E0,8.792715454E0,-3.081941071E0,-4.668791199E-1,9.328889641E0
4.753675208E0,8.558901672E0,-3.010389862E0,-4.375401306E-1,9.083429216E0
4.763659208E0,8.330626373E0,-2.912643127E0,-4.182302856E-1,8.835029277E0
4.773644208E0,8.120164032E0,-2.830613708E0,-4.682263184E-1,8.612123650E0
4.783629208E0,8.010891266E0,-2.817291412E0,-5.652246094E-1,8.510639731E0
4.793614208E0,8.009843445E0,-2.799927521E0,-6.221063232E-1,8.507890597E0
4.803599208E0,8.035440216E0,-2.724634094E0,-6.768923950E-1,8.511763256E0
4.813583208E0,8.027656403E0,-2.592009888E0,-7.402107239E-1,8.468157680E0
4.823568208E0,7.986492004E0,-2.437531128E0,-8.240364075E-1,8.390747794E0
4.833553208E0,7.827672272E0,-2.283202057E0,-9.475296021E-1,8.208731764E0
4.843538208E0,7.571405182E0,-2.156565399E0,-1.062191162E0,7.943878197E0
4.853523208E0,7.350015564E0,-2.043400726E0,-1.172362061E0,7.718331952E0
4.863508208E0,7.222780151E0,-1.899549866E0,-1.238674164E0,7.570413231E0
4.873492208E0,7.016808472E0,-1.810634766E0,-1.304836578E0,7.363192098E0
4.883477208E0,6.813531189E0,-1.849254456E0,-1.374142456E0,7.192511161E0
4.893462208E0,6.709048462E0,-1.960772552E0,-1.386716309E0,7.125934492E0
4.903447208E0,6.725663910E0,-2.086960144E0,-1.323996735E0,7.165397758E0
4.913432208E0,6.858737183E0,-2.187850342E0,-1.215173035E0,7.301069125E0
4.923416208E0,6.990014191E0,-2.236050110E0,-1.060245209E0,7.415142506E0
4.933401208E0,7.080426178E0,-2.204316101E0,-8.675958252E-1,7.466201635E0
4.943386208E0,7.092101898E0,-2.113455048E0,-6.818321228E-1,7.431655039E0
4.953371208E0,7.078480225E0,-2.073637848E0,-5.846841431E-1,7.399102092E0
4.963356208E0,7.093149719E0,-2.095941467E0,-5.143304443E-1,7.414194453E0
4.973340208E0,7.159910889E0,-2.121987305E0,-4.872367859E-1,7.483619027E0
4.983325208E0,7.313042450E0,-2.189945984E0,-4.879852295E-1,7.649482523E0
4.993310208E0,7.582182770E0,-2.279010773E0,-5.049000549E-1,7.933366859E0
5.003295208E0,7.980803833E0,-2.443518677E0,-4.885839844E-1,8.360785110E0
5.013280208E0,8.496930542E0,-2.680475922E0,-4.607418823E-1,8.921606519E0
5.023264208E0,9.250313873E0,-3.026256866E0,-4.890330505E-1,9.745034156E0
5.033249208E0,9.954299927E0,-3.479813690E0,-4.902305603E-1,1.055639694E1
5.043234208E0,1.056158707E1,-3.789669342E0,-4.957690430E-1,1.123185212E1
5.053219208E0,1.083491867E1,-3.863765259E0,-5.472619629E-1,1.151623377E1
5.063204208E0,1.105241638E1,-3.718567200E0,-5.530998230E-1,1.167431237E1
5.073188208E0,1.133457962E1,-3.562142487E0,-7.024891663E-1,1.190189251E1
5.083173208E0,1.163769928E1,-3.477718048E0,-8.755293274E-1,1.217773045E1
5.093158208E0,1.186357956E1,-3.450175323E0,-8.985813904E-1,1.238772288E1
5.103143208E0,1.218840408E1,-3.463647308E0,-8.321195984E-1,1.269828610E1
5.113128208E0,1.275317963E1,-3.560944977E0,-9.671388245E-1,1.327626744E1
5.123112208E0,1.352587280E1,-3.770359497E0,-1.268162842E0,1.409869082E1
5.133097208E0,1.417462372E1,-4.142635345E0,-1.487905884E0,1.484234648E1
5.143082208E0,1.466380646E1,-4.470902710E0,-1.510508881E0,1.540447428E1
5.153067208E0,1.479298782E1,-4.405339050E0,-1.119222565E0,1.547553424E1
5.163052208E0,1.422417068E1,-3.792812805E0,-4.228706360E-1,1.472722921E1
5.173036208E0,1.313428711E1,-2.715652771E0,3.511697388E-1,1.341669065E1
5.183021208E0,1.193737610E1,-1.569935303E0,8.961863708E-1,1.207347485E1
5.193006208E0,1.064361649E1,-5.697152710E-1,1.069076843E0,1.071233274E1
5.202991208E0,9.470655670E0,2.128573608E-1,9.713301086E-1,9.522715435E0
5.212976208E0,8.875643005E0,5.403762817E-1,7.542814636E-1,8.924011755E0
5.222960208E0,8.653954010E0,4.649331665E-1,4.514611816E-1,8.678185297E0
5.232945208E0,8.611143036E0,2.603086853E-1,1.802252197E-1,8.616961537E0
5.242930208E0,8.584348755E0,1.683998108E-1,-6.960525513E-2,8.586282486E0
5.252915208E0,8.581055603E0,1.531315613E-1,-3.391946411E-1,8.589122047E0
5.262900208E0,8.878038025E0,1.766326904E-1,-7.279362488E-1,8.909581890E0
5.272884208E0,9.319769440E0,2.183958435E-1,-1.243913269E0,9.404951854E0
5.282869208E0,9.630074158E0,1.781295776E-1,-1.702709198E0,9.781067275E0
5.292854208E0,9.713151398E0,9.999206543E-2,-1.939067688E0,9.905316350E0
5.302839208E0,9.597591705E0,-4.026626587E-2,-2.251767426E0,9.858288110E0
5.312824208E0,9.349258118E0,-2.215393066E-1,-2.637215881E0,9.716615389E0
5.322808208E0,9.094637604E0,-4.787045288E-1,-2.806064758E0,9.529721433E0
5.332793208E0,8.720266113E0,-7.635621643E-1,-2.899470520E0,9.221333828E0
5.342778208E0,8.178392944E0,-1.071172485E0,-2.938988342E0,8.756207748E0
5.352763208E0,7.652835846E0,-1.341809692E0,-2.792443085E0,8.256154560E0
5.362748208E0,7.596253510E0,-1.427281952E0,-2.370919647E0,8.084643537E0
5.372733208E0,8.149802399E0,-1.249302063E0,-2.218237152E0,8.538185454E0
5.382717208E0,8.330027618E0,-1.556762695E0,-2.123035126E0,8.736140358E0
5.392702208E0,8.438252563E0,-2.048490143E0,-1.203197937E0,8.766305006E0
5.402687208E0,8.423283691E0,-1.978286133E0,1.884580994E-1,8.654527175E0
5.412672208E0,8.602012024E0,-1.443747711E0,7.267387390E-1,8.752552057E0
5.422657583E0,8.649762726E0,-1.276246033E0,7.384144592E-1,8.774534464E0
5.432641583E0,8.547375641E0,-1.301244049E0,9.514215088E-1,8.698049742E0
5.442626583E0,8.468938751E0,-1.266067200E0,1.210532684E0,8.648192823E0
5.452611583E0,8.331674194E0,-1.201102295E0,1.209484863E0,8.504251598E0
5.462596583E0,8.268056488E0,-1.243613892E0,1.036744080E0,8.425091803E0
5.472581583E0,8.411458282E0,-1.271905060E0,9.084608459E-1,8.555447038E0
5.482565583E0,8.661588135E0,-1.094972992E0,7.845185852E-1,8.765702726E0
5.492550583E0,9.018296356E0,-6.141728210E-1,5.511538696E-1,9.055973057E0
5.502535583E0,9.162296906E0,-1.420545959E-1,1.999841309E-1,9.165580055E0
5.512520583E0,9.165290680E0,3.682342529E-2,-3.517684937E-1,9.172112640E0
5.522505583E0,9.122030640E0,5.748046875E-2,-8.563691711E-1,9.162320402E0
5.532489583E0,8.984616394E0,4.041595459E-2,-1.180894318E0,9.061979728E0
5.542474583E0,8.829538879E0,-5.957611084E-2,-1.503772888E0,8.956876634E0
5.552459583E0,8.780141602E0,-1.610650635E-1,-1.779349823E0,8.960073342E0
5.562444583E0,8.791068878E0,-2.363584900E-1,-1.886377258E0,8.994285770E0
5.572429583E0,8.777746582E0,-3.258723450E-1,-1.845212860E0,8.975513263E0
5.582413583E0,8.827143860E0,-4.333488464E-1,-1.675615540E0,8.995218029E0
5.592398583E0,8.998238068E0,-5.876779175E-1,-1.484762421E0,9.138827775E0
5.602383583E0,9.189390564E0,-7.801776123E-1,-1.327289886E0,9.317471464E0
5.612368583E0,9.207353210E0,-1.031205597E0,-1.281485138E0,9.353124734E0
5.622353583E0,9.231602783E0,-1.300645294E0,-1.329385529E0,9.417082033E0
5.632337583E0,9.352700958E0,-1.571731567E0,-1.409618683E0,9.588033175E0
5.642322583E0,9.626930695E0,-1.842518463E0,-1.506916351E0,9.916827405E0
5.652307583E0,1.010159363E1,-2.121687927E0,-1.539698181E0,1.043620736E1
5.662292583E0,1.073866882E1,-2.365081787E0,-1.465302887E0,1.109322913E1
5.672277583E0,1.137559433E1,-2.484683075E0,-1.298699341E0,1.171598977E1
5.682261583E0,1.186851929E1,-2.501148834E0,-1.176253967E0,1.218610147E1
5.692246583E0,1.245604752E1,-2.506238251E0,-1.178648987E0,1.276023367E1
5.702231583E0,1.314237030E1,-2.428100739E0,-1.201850739E0,1.341871885E1
5.712216583E0,1.357018066E1,-2.334994354E0,-1.209185486E0,1.382259496E1
5.722201583E0,1.381567017E1,-2.364782410E0,-1.421593781E0,1.408850123E1
5.732185583E0,1.404798706E1,-2.496059418E0,-1.741777954E0,1.437393626E1
5.742170583E0,1.445109879E1,-2.754272461E0,-2.053579559E0,1.485387027E1
5.752155583E0,1.494626907E1,-3.259022827E0,-2.313738556E0,1.547144386E1
5.762140583E0,1.521316406E1,-3.787573700E0,-2.210752716E0,1.583267201E1
5.772125583E0,1.503189102E1,-3.753145294E0,-1.559157715E0,1.557160300E1
5.782110583E0,1.410007874E1,-2.736309814E0,-5.171745300E-1,1.437244173E1
5.792094583E0,1.287412811E1,-1.091230774E0,3.076103210E-1,1.292395386E1
5.802079583E0,1.183453995E1,3.264710999E-1,5.950126648E-1,1.185398495E1
5.812064583E0,1.117875366E1,1.170565796E0,4.472698975E-1,1.124876918E1
5.822049583E0,1.110914841E1,1.227297821E0,-7.035369873E-3,1.117673869E1
5.832034583E0,1.119836288E1,6.144721985E-1,-5.867797852E-1,1.123054842E1
5.842018583E0,1.100406693E1,-2.580633545E-1,-1.030606842E0,1.105523568E1
5.852003583E0,1.067520081E1,-1.109343109E0,-1.174906769E0,1.079680324E1
5.861988583E0,1.015578094E1,-1.796264648E0,-1.071920929E0,1.036896657E1
5.871973583E0,9.638606415E0,-2.326462097E0,-9.358538818E-1,9.959466953E0
5.881958583E0,9.375303955E0,-2.709216156E0,-7.482939148E-1,9.787549244E0
5.891942583E0,9.364526367E0,-2.940036163E0,-5.224136353E-1,9.829093688E0
5.901927583E0,9.459129639E0,-3.083587646E0,-3.459306335E-1,9.955064756E0
5.911912583E0,9.527986450E0,-3.156486053E0,-2.356100464E-1,1.003999214E1
5.921897583E0,9.552086334E0,-3.158731384E0,-1.609153748E-1,1.006209874E1
5.931882583E0,9.430090027E0,-3.107687531E0,-1.169068909E-1,9.929651903E0
5.941866583E0,9.218879242E0,-3.016227722E0,-8.307723999E-2,9.700116802E0
5.951851583E0,8.936566315E0,-2.930605774E0,-6.316864014E-2,9.405033651E0
5.961836583E0,8.555608521E0,-2.888094177E0,-6.975494385E-2,9.030193292E0
5.971821583E0,8.185727692E0,-2.807262268E0,-7.289840698E-2,8.654026431E0
5.981806583E0,7.881859589E0,-2.662662964E0,-7.110214233E-2,8.319768035E0
5.991790583E0,7.694299622E0,-2.506387939E0,-7.933502197E-2,8.092621406E0
6.001775583E0,7.648494873E0,-2.398761749E0,-1.011895752E-1,8.016468741E0
6.011760583E0,7.704628143E0,-2.312690735E0,-2.207908630E-1,8.047271703E0
6.021745583E0,7.770790558E0,-2.247576141E0,-3.929328918E-1,8.098838229E0
6.031730583E0,7.929460602E0,-2.177521820E0,-5.436694336E-1,8.240966155E0
6.041714583E0,8.028105469E0,-2.093396759E0,-6.397695923E-1,8.321183362E0
6.051699583E0,7.860753479E0,-2.022743683E0,-7.478448486E-1,8.151209063E0
6.061684583E0,7.511679382E0,-1.958227844E0,-8.973838806E-1,7.814427763E0
6.071669583E0,7.110812988E0,-1.904938660E0,-1.035995636E0,7.434093059E0
6.081654583E0,6.741530914E0,-1.873504028E0,-1.192869415E0,7.097971108E0
6.091638583E0,6.525679779E0,-1.880090332E0,-1.349443817E0,6.923888709E0
6.101623583E0,6.536607056E0,-1.933828583E0,-1.329984283E0,6.945198556E0
6.111608583E0,6.529122620E0,-1.927391968E0,-1.138981476E0,6.902286634E0
6.121593583E0,6.459367676E0,-1.888173523E0,-9.833052063E-1,6.801141018E0
6.131578583E0,6.410120087E0,-1.865271149E0,-9.363029480E-1,6.741330669E0
6.141562583E0,6.492448883E0,-1.838027802E0,-9.616003418E-1,6.815784175E0
6.151547583E0,6.602320404E0,-1.824555817E0,-1.035995636E0,6.927692661E0
6.161532583E0,6.735543365E0,-1.863624573E0,-1.115929413E0,7.077142038E0
6.171517583E0,6.963369598E0,-1.992057495E0,-1.221909027E0,7.345057583E0
6.181502583E0,7.253017273E0,-2.186652832E0,-1.330583038E0,7.691434287E0
6.191486583E0,7.485184479E0,-2.371817780E0,-1.405876465E0,7.976841160E0
6.201471583E0,7.809859314E0,-2.519261169E0,-1.488504639E0,8.340037494E0
6.211456583E0,8.452323303E0,-2.689307556E0,-1.555864563E0,9.005268396E0
6.221441583E0,9.396260376E0,-2.804567871E0,-1.434317322E0,9.910225839E0
6.231426583E0,1.023661285E1,-2.886447601E0,-1.188229065E0,1.070194892E1
6.241411583E0,1.074495575E1,-2.992576904E0,-1.097667389E0,1.120778588E1
6.251395583E0,1.108564728E1,-3.097059631E0,-1.059796143E0,1.155882874E1
6.261380583E0,1.132904114E1,-3.219205627E0,-1.205293579E0,1.183905362E1
6.271365583E0,1.141196869E1,-3.415148163E0,-1.394949188E0,1.199342110E1
6.281350583E0,1.147992737E1,-3.712879028E0,-1.500928802E0,1.215841233E1
6.291335583E0,1.163829803E1,-3.955823822E0,-1.598076782E0,1.239565943E1
6.301319583E0,1.189142166E1,-4.046086121E0,-1.714833984E0,1.267743577E1
6.311304583E0,1.231848358E1,-4.020938416E0,-2.011217651E0,1.311327495E1
6.321289583E0,1.300151321E1,-4.084107056E0,-2.553390198E0,1.386503075E1
6.331274583E0,1.380309631E1,-4.331392822E0,-3.115471344E0,1.479839834E1
6.341259583E0,1.455692871E1,-4.704716492E0,-3.483555908E0,1.568992328E1
6.351243583E0,1.505344620E1,-4.849016418E0,-3.346740417E0,1.616539124E1
6.361228583E0,1.476305008E1,-4.342020721E0,-2.364333344E0,1.556890695E1
6.371213583E0,1.398152527E1,-3.316952362E0,-1.049467621E0,1.440786605E1
6.381198583E0,1.318518127E1,-2.017354889E0,5.897735596E-2,1.333874823E1
6.391183583E0,1.202344711E1,-4.825964355E-1,1.042731628E0,1.207822293E1
6.401167583E0,1.087772964E1,7.676037598E-1,1.478325806E0,1.100452929E1
6.411152583E0,1.026535309E1,1.452729034E0,1.515598297E0,1.047783059E1
6.421137833E0,1.020428009E1,1.566642151E0,1.303938446E0,1.040586158E1
6.431122833E0,1.021236328E1,1.445693665E0,8.816665649E-1,1.035179839E1
6.441107833E0,1.006012985E1,1.439556427E0,5.069956970E-1,1.017524349E1
6.451091833E0,9.782157898E0,1.495540009E0,1.399589539E-1,9.896809666E0
6.461076833E0,9.527088318E0,1.418150940E0,-5.254074097E-1,9.646378432E0
6.471061833E0,9.361233215E0,1.201401672E0,-1.164278870E0,9.509553017E0
6.481046833E0,9.104517059E0,8.539741516E-1,-1.688788147E0,9.299113299E0
6.491031833E0,8.855435028E0,4.055067444E-1,-2.157313843E0,9.123440594E0
6.501015833E0,8.643026733E0,-1.416055298E-1,-2.533780975E0,9.007885949E0
6.511000833E0,8.382418671E0,-6.884184265E-1,-2.805016937E0,8.866057902E0
6.520985833E0,8.129744110E0,-1.181942139E0,-2.935695190E0,8.723991791E0
6.530970833E0,7.788603516E0,-1.477128296E0,-2.965034180E0,8.463786411E0
6.540955833E0,7.212601318E0,-1.576671295E0,-2.852767639E0,7.914909561E0
6.550939833E0,6.733447723E0,-1.633403320E0,-2.702480164E0,7.437117969E0
6.560924833E0,6.535708923E0,-1.682950287E0,-2.474055176E0,7.188098623E0
6.570909833E0,6.519093475E0,-1.752854919E0,-2.099683685E0,7.069635895E0
6.580894833E0,6.713090057E0,-1.410816193E0,-1.265618134E0,6.975512147E0
6.590879833E0,7.687413940E0,-3.309617615E-1,-9.171427917E-1,7.749001205E0
6.600864833E0,8.115074615E0,-3.920347595E-1,-1.726809082E0,8.306021724E0
6.610848833E0,8.047415314E0,-1.062340851E0,-2.572400665E0,8.515086993E0
6.620833833E0,7.571854248E0,-1.932331696E0,-1.713187408E0,8.000118351E0
6.630818833E0,7.141050110E0,-1.732646942E0,3.957769775E-1,7.358892683E0
6.640803833E0,7.534881134E0,-6.315367126E-1,1.164129181E0,7.650390126E0
6.650787833E0,8.723110199E0,1.758842468E-1,8.848100281E-1,8.769633721E0
6.660772833E0,9.470056915E0,2.026785278E-1,2.146536255E-1,9.474657395E0
6.670757833E0,9.621092834E0,-2.821632385E-1,-8.966354370E-2,9.625647146E0
6.680742833E0,9.566456451E0,-3.987707520E-1,-3.335064697E-1,9.580570636E0
6.690727833E0,9.238338776E0,-4.146377563E-1,-5.447172546E-1,9.263667993E0
6.700712833E0,8.765921173E0,-6.198609924E-1,-5.069956970E-1,8.802422752E0
6.710696833E0,8.763077087E0,-8.135581970E-1,-4.182302856E-1,8.810693137E0
6.720681833E0,9.198671265E0,-8.457412720E-1,-3.311114502E-1,9.243401221E0
6.730666833E0,9.689350891E0,-7.325765991E-1,-1.203497314E-1,9.717750420E0
6.740651833E0,9.997709656E0,-6.288423157E-1,1.490899658E-1,1.001857619E1
6.750636833E0,1.012913635E1,-7.089257812E-1,4.453239441E-1,1.016367514E1
6.760620833E0,1.024559418E1,-8.515791321E-1,6.132746887E-1,1.029919865E1
6.770605833E0,1.051174072E1,-7.698490906E-1,6.246510315E-1,1.055838764E1
6.780590833E0,1.068522995E1,-4.948709106E-1,3.966751099E-1,1.070403604E1
6.790575833E0,1.043165726E1,-2.236349487E-1,-2.694396973E-3,1.043405448E1
6.800560833E0,9.567653961E0,-2.221380615E-1,-5.361849976E-1,9.585240842E0
6.810544833E0,9.124725037E0,-4.483177185E-1,-9.066645813E-1,9.180611986E0
6.820529833E0,9.309141541E0,-7.432044983E-1,-9.770182800E-1,9.389730234E0
6.830514833E0,9.591604156E0,-9.544152832E-1,-8.464897156E-1,9.676069639E0
6.840499833E0,9.813742218E0,-1.109193420E0,-4.631369019E-1,9.887079556E0
6.850484833E0,9.972861328E0,-1.286424866E0,-2.170486450E-2,1.005551208E1
6.860468833E0,1.040995239E1,-1.530716858E0,3.667373657E-1,1.052828092E1
6.870453833E0,1.116857483E1,-1.817221069E0,8.505313110E-1,1.134736796E1
6.880438833E0,1.182540894E1,-2.056273956E0,1.295406189E0,1.207255716E1
6.890423833E0,1.226803848E1,-2.117646332E0,1.648072815E0,1.255807860E1
6.900408833E0,1.259136612E1,-2.042652283E0,1.733096008E0,1.287317175E1
6.910392833E0,1.280676819E1,-2.063758392E0,1.392554169E0,1.304651744E1
6.920377833E0,1.331870361E1,-2.481240234E0,5.707630920E-1,1.355987425E1
6.930362833E0,1.410382095E1,-3.322341156E0,-3.070115662E-1,1.449310085E1
6.940347833E0,1.476739105E1,-4.139042816E0,-6.255491638E-1,1.534922883E1
6.950332833E0,1.520298523E1,-4.316723328E0,-1.675016785E-1,1.580483840E1
6.960316833E0,1.508293488E1,-3.430416412E0,8.873547363E-1,1.549354961E1
6.970301833E0,1.442445419E1,-1.833537140E0,1.805844727E0,1.465222892E1
6.980286833E0,1.383213593E1,-4.083508301E-1,2.145787811E0,1.400354027E1
6.990271833E0,1.287772064E1,8.327183533E-1,2.287093964E0,1.310572041E1
7.000256833E0,1.164323776E1,1.733395386E0,2.179617462E0,1.197164890E1
7.010240833E0,1.050874695E1,1.922751617E0,1.675016785E0,1.081371432E1
7.020225833E0,9.700427856E0,1.259181519E0,9.521699524E-1,9.828044888E0
7.030210833E0,9.304800568E0,1.366658020E-1,1.380130005E-1,9.306827533E0
7.040195833E0,9.083710327E0,-6.493496704E-1,-2.136058044E-1,9.109394916E0
7.050180833E0,8.774902496E0,-9.948312378E-1,-9.265731812E-2,8.831601689E0
7.060165833E0,8.636590118E0,-1.145268402E0,2.246827698E-1,8.715090988E0
7.070149833E0,8.934320984E0,-1.274599457E0,5.950126648E-1,9.044375893E0
7.080134833E0,9.342222748E0,-1.465602264E0,7.819738770E-1,9.488761722E0
7.090119833E0,9.640402679E0,-1.605860596E0,8.409512329E-1,9.809350185E0
7.100104833E0,9.758656769E0,-1.713935852E0,8.783734131E-1,9.946883828E0
7.110089833E0,9.782008209E0,-1.797911224E0,8.325686646E-1,9.980648273E0
7.120073833E0,9.650282135E0,-1.873204651E0,6.956034851E-1,9.854983773E0
7.130058833E0,9.383985901E0,-1.939067688E0,5.692662048E-1,9.599126986E0
7.140043833E0,9.087452545E0,-1.973196716E0,5.158273315E-1,9.313505080E0
7.150028833E0,8.917705536E0,-1.989213409E0,5.530998230E-1,9.153598278E0
7.160013833E0,8.891659698E0,-1.968556366E0,6.366261292E-1,9.129190500E0
7.169997833E0,8.900641022E0,-1.876198425E0,7.527845764E-1,9.127333441E0
7.179982833E0,8.841663666E0,-1.715283051E0,8.050259399E-1,9.042415556E0
7.189967833E0,8.759334869E0,-1.579515381E0,8.038284302E-1,8.936831448E0
7.199952833E0,8.729546814E0,-1.461860046E0,7.617658997E-1,8.883822919E0
7.209937833E0,8.636141052E0,-1.409618683E0,6.316864014E-1,8.773196955E0
7.219921833E0,8.375682678E0,-1.417252808E0,3.791615295E-1,8.503201121E0
7.229906833E0,8.089627533E0,-1.446142731E0,1.324745178E-1,8.218938613E0
7.239891833E0,7.821235657E0,-1.495989075E0,-6.765930176E-2,7.963308878E0
7.249876833E0,7.560328217E0,-1.578168182E0,-1.745370483E-1,7.725259914E0
7.259861833E0,7.388485565E0,-1.653910675E0,-1.953437805E-1,7.573856261E0
7.269845833E0,7.354057159E0,-1.618284760E0,-1.204994202E-1,7.530970879E0
7.279830833E0,7.293283539E0,-1.516945496E0,-7.349716187E-2,7.449732227E0
7.289815833E0,7.121440887E0,-1.492097168E0,-9.460327148E-2,7.276690460E0
7.299800833E0,7.075336761E0,-1.549577637E0,-9.639953613E-2,7.243678210E0
7.309785833E0,7.132218475E0,-1.604064331E0,-4.969665527E-2,7.310542560E0
7.319769833E0,7.129524078E0,-1.621278534E0,-7.634124756E-3,7.311546755E0
7.329754833E0,7.098089447E0,-1.632056122E0,1.197509766E-3,7.283301615E0
7.339739833E0,7.038962402E0,-1.638492737E0,-7.933502197E-3,7.227151105E0
7.349724833E0,6.992409210E0,-1.665287018E0,-4.146377563E-2,7.188093395E0
7.359709833E0,7.062313843E0,-1.739382935E0,-1.423539734E-1,7.274750474E0
7.369693833E0,7.264393616E0,-1.865869904E0,-2.671943665E-1,7.504950228E0
7.379678833E0,7.584278412E0,-1.963766327E0,-2.884501648E-1,7.839697744E0
7.389663833E0,7.949518890E0,-2.067051544E0,-3.104544067E-1,8.219728378E0
7.399648833E0,8.374185791E0,-2.260599060E0,-4.366419983E-1,8.684926713E0
7.409633833E0,8.945098572E0,-2.551743622E0,-5.661227417E-1,9.319156557E0
7.419618208E0,9.591005402E0,-2.860102386E0,-6.544390869E-1,1.002974879E1
7.429603208E0,1.020772293E1,-3.049159241E0,-7.478448486E-1,1.067961851E1
7.439588208E0,1.076950470E1,-3.098107452E0,-9.011260986E-1,1.124244322E1
7.449573208E0,1.121363113E1,-3.089425507E0,-1.059945831E0,1.167962150E1
7.459558208E0,1.141002274E1,-3.057092743E0,-1.133892059E0,1.186676645E1
7.469543208E0,1.147588577E1,-2.962639160E0,-1.155596924E0,1.190834117E1
7.479527208E0,1.158455978E1,-2.936443634E0,-1.191222839E0,1.201015148E1
7.489512208E0,1.183394119E1,-3.089275818E0,-1.444196777E0,1.231549810E1
7.499497208E0,1.228989304E1,-3.431763611E0,-1.841021576E0,1.289216168E1
7.509482208E0,1.300375854E1,-3.833827515E0,-2.177671509E0,1.373092214E1
7.519467208E0,1.370295456E1,-4.101620636E0,-2.352058868E0,1.449573856E1
7.529451208E0,1.435634583E1,-4.321812744E0,-2.390528870E0,1.518213948E1
7.539436208E0,1.458956085E1,-4.243375854E0,-1.928589478E0,1.531603675E1
7.549421208E0,1.395637756E1,-3.457210693E0,-7.679031372E-1,1.439869632E1
7.559406208E0,1.290256897E1,-2.170486450E0,3.993695068E-1,1.308995009E1
7.569391208E0,1.183364182E1,-8.268804932E-1,1.099763031E0,1.191336597E1
7.579375208E0,1.083566711E1,2.853067017E-1,1.521436157E0,1.094567722E1
7.589360208E0,1.026056305E1,8.828640747E-1,1.619332581E0,1.042501036E1
7.599345208E0,9.827812958E0,1.055604858E0,1.432820435E0,9.987651553E0
7.609330208E0,9.703721008E0,8.526269531E-1,1.214873657E0,9.816572321E0
7.619315208E0,9.640702057E0,5.797444153E-1,9.943821716E-1,9.709172758E0
7.629299208E0,9.372010803E0,3.972738647E-1,5.806425476E-1,9.398380647E0
7.639284208E0,9.318721619E0,4.267625427E-1,1.137634277E-2,9.328495500E0
7.649269208E0,9.370962982E0,4.870870972E-1,-6.939569092E-1,9.409238930E0
7.659254208E0,9.481283569E0,5.161267090E-1,-1.499731293E0,9.613028599E0
7.669239208E0,9.456884308E0,4.472698975E-1,-2.323767700E0,9.748466931E0
7.679223208E0,9.295968933E0,2.161505127E-1,-3.032543793E0,9.780494942E0
7.689208208E0,9.004524994E0,-1.694476318E-1,-3.494333496E0,9.660256179E0
7.699193208E0,8.574618988E0,-6.360273743E-1,-3.635190582E0,9.335053946E0
7.709178208E0,7.975714417E0,-1.071022797E0,-3.564687195E0,8.801483118E0
7.719163208E0,7.525301056E0,-1.368005219E0,-3.475921783E0,8.401406222E0
7.729147208E0,7.301965485E0,-1.431473236E0,-3.362607422E0,8.165472689E0
7.739132208E0,7.151678009E0,-1.353635101E0,-2.958896942E0,7.857092175E0
7.749117208E0,7.194339294E0,-1.324445801E0,-2.417323151E0,7.704292685E0
7.759102208E0,7.289391632E0,-1.392554169E0,-2.050286407E0,7.699228002E0
7.769087208E0,7.494614868E0,-1.484912109E0,-1.703757019E0,7.827962952E0
7.779071208E0,7.696395264E0,-1.402882690E0,-1.135388947E0,7.905168433E0
7.789056208E0,8.265511780E0,-5.764512634E-1,-5.459147644E-1,8.303553695E0
7.799041208E0,8.744365997E0,-2.219883728E-1,-1.196911011E0,8.828692514E0
7.809026208E0,8.552465057E0,-1.061592407E0,-1.823657684E0,8.808936618E0
7.819011208E0,8.256680145E0,-1.368154907E0,-5.179229736E-1,8.385276327E0
7.828995208E0,8.228838043E0,-7.412585449E-1,4.574487305E-1,8.274811122E0
7.838980208E0,8.309520264E0,-3.960763550E-1,1.833686829E-1,8.320975157E0
7.848965208E0,8.605604553E0,-4.296066284E-1,3.218307495E-2,8.616381336E0
7.858950208E0,9.068591766E0,-4.478686523E-1,8.023315430E-2,9.079998916E0
7.868935208E0,9.235345001E0,-3.576063538E-1,-1.826202393E-2,9.242283976E0
7.878920208E0,9.197324066E0,-3.408412170E-1,-2.424957275E-1,9.206831534E0
7.888904208E0,9.084159393E0,-4.546046448E-1,-4.561015320E-1,9.106955906E0
7.898889208E0,8.975934448E0,-5.394781494E-1,-6.430627441E-1,9.015096538E0
7.908874208E0,8.868308258E0,-5.731581116E-1,-7.899073792E-1,8.921847076E0
7.918859208E0,8.805888062E0,-6.001020813E-1,-8.650511169E-1,8.868601947E0
7.928844208E0,8.792565765E0,-6.656657410E-1,-9.331594849E-1,8.866967364E0
7.938828208E0,8.772357788E0,-7.917036438E-1,-9.821076965E-1,8.862595069E0
7.948813208E0,8.755143585E0,-8.713380432E-1,-1.005010071E0,8.855609207E0
7.958798208E0,8.823701019E0,-8.306227112E-1,-1.013692017E0,8.920493555E0
7.968783208E0,8.786278839E0,-6.950047302E-1,-8.873547363E-1,8.858280072E0
7.978768208E0,8.731343079E0,-6.346801758E-1,-7.002438354E-1,8.782340936E0
7.988752208E0,8.889414368E0,-6.465055847E-1,-6.852749634E-1,8.939197897E0
7.998737208E0,9.135352936E0,-7.054829407E-1,-7.887098694E-1,9.196436413E0
8.008722208E0,9.503886566E0,-7.994874573E-1,-9.388476562E-1,9.583552315E0
8.018707208E0,1.008931915E1,-8.637039185E-1,-1.000968475E0,1.017557287E1
8.028692208E0,1.061592407E1,-8.804690552E-1,-1.032702484E0,1.070231489E1
8.038676208E0,1.094254486E1,-9.210346985E-1,-9.774673462E-1,1.102465579E1
8.048661208E0,1.129072083E1,-9.494755554E-1,-8.960366821E-1,1.136594749E1
8.058646208E0,1.170236481E1,-8.988807678E-1,-8.369096375E-1,1.176663701E1
8.068631208E0,1.216595078E1,-8.304730225E-1,-7.803273010E-1,1.221920433E1
8.078616208E0,1.263612305E1,-6.917115784E-1,-7.243437195E-1,1.267575419E1
8.088600208E0,1.299911819E1,-4.846920776E-1,-6.909631348E-1,1.302648956E1
8.098585208E0,1.313009583E1,-3.968247986E-1,-6.649172974E-1,1.315290847E1
8.108570208E0,1.333262466E1,-6.929090881E-1,-8.690927124E-1,1.337887610E1
8.118555208E0,1.400487671E1,-1.696871338E0,-1.465003510E0,1.418316535E1
8.128540208E0,1.496962051E1,-3.173101501E0,-2.023492126E0,1.543543429E1
8.138525208E0,1.548919006E1,-4.223167877E0,-1.915416870E0,1.616845625E1
8.148509208E0,1.524130554E1,-4.143234100E0,-1.169967041E0,1.583769574E1
8.158494208E0,1.427177170E1,-2.857707367E0,8.517288208E-2,1.455531563E1
8.168479208E0,1.310794189E1,-9.521699524E-1,1.218615875E0,1.319885575E1
8.178464208E0,1.222163498E1,7.445516968E-1,1.765129395E0,1.237086903E1
8.188449208E0,1.165281784E1,1.715283051E0,1.835183716E0,1.192049742E1
8.198433208E0,1.154040161E1,1.654808807E0,1.403032379E0,1.174256196E1
8.208418208E0,1.168889282E1,7.538323975E-1,6.198609924E-1,1.172956548E1
8.218403208E0,1.133802246E1,-3.179388428E-1,7.170089722E-2,1.134270600E1
8.228388208E0,1.049273026E1,-1.170865173E0,-8.367599487E-2,1.055818711E1
8.238373208E0,9.663305054E0,-1.674268341E0,3.592529297E-3,9.807275460E0
8.248357208E0,9.160350952E0,-1.926643524E0,6.855743408E-2,9.361019440E0
8.258342208E0,9.097930756E0,-2.041754150E0,6.631210327E-2,9.324457161E0
8.268327208E0,9.471853180E0,-2.021246796E0,1.646575928E-2,9.685128414E0
8.278312208E0,1.006641678E1,-1.909429321E0,-5.807922363E-2,1.024607438E1
8.288297208E0,1.045066772E1,-1.722617798E0,-1.532812500E-1,1.059279770E1
8.298281208E0,1.056772430E1,-1.583856354E0,-3.158432007E-1,1.069042351E1
8.308266208E0,1.039213943E1,-1.546434174E0,-5.164260864E-1,1.051925456E1
8.318251208E0,1.000788849E1,-1.518143005E0,-6.724017334E-1,1.014468897E1
8.328236208E0,9.609716492E0,-1.504221954E0,-7.442523193E-1,9.755165106E0
8.338221208E0,9.271869049E0,-1.519490204E0,-7.833210754E-1,9.428149238E0
8.348205208E0,8.999285889E0,-1.533710632E0,-7.878117371E-1,9.162972342E0
8.358190208E0,8.754694519E0,-1.544937286E0,-7.182064819E-1,8.918930872E0
8.368175208E0,8.503217468E0,-1.565594330E0,-6.116281128E-1,8.667749527E0
8.378160208E0,8.278534698E0,-1.598675537E0,-4.911286926E-1,8.445774542E0
8.388145208E0,8.218210144E0,-1.610650635E0,-3.701802063E-1,8.382732659E0
8.398129208E0,8.195008392E0,-1.587748260E0,-2.776725769E-1,8.352018268E0
8.408114208E0,8.077203369E0,-1.608704681E0,-3.661386108E-1,8.243979773E0
8.418099208E0,7.856262817E0,-1.672472076E0,-5.150788879E-1,8.048809512E0
8.428083083E0,7.596103821E0,-1.783541107E0,-5.963598633E-1,7.825436552E0
8.438068083E0,7.292984161E0,-1.941911774E0,-7.041357422E-1,7.579871137E0
8.448052083E0,7.007078705E0,-2.107916565E0,-7.831713867E-1,7.359063911E0
8.458037083E0,6.804699554E0,-2.226919098E0,-7.740403748E-1,7.201544501E0
8.468022083E0,6.688840485E0,-2.245181122E0,-6.441105652E-1,7.084934983E0
8.478007083E0,6.678212585E0,-2.159259796E0,-4.405339050E-1,7.032424641E0
8.487992083E0,6.842570801E0,-1.990560608E0,-2.300715637E-1,7.129939665E0
8.497976083E0,7.162754974E0,-1.772164764E0,-1.082249451E-1,7.379521625E0
8.507961083E0,7.542964325E0,-1.596430206E0,-8.337661743E-2,7.710502699E0
8.517946083E0,7.770341492E0,-1.488205261E0,-2.305206299E-2,7.911604970E0
8.527931083E0,7.814349976E0,-1.469344482E0,-5.448669434E-2,7.951478325E0
8.537916083E0,7.715256042E0,-1.479972382E0,-2.139051819E-1,7.858832577E0
8.547901083E0,7.536527710E0,-1.573078766E0,-3.532653809E-1,7.707050224E0
8.557885083E0,7.471413116E0,-1.771865387E0,-4.989125061E-1,7.694831681E0
8.567870083E0,7.625293121E0,-2.031275940E0,-5.870791626E-1,7.913017065E0
8.577855083E0,7.820038147E0,-2.197729797E0,-5.430706787E-1,8.141126374E0
8.587840083E0,8.126301270E0,-2.158062286E0,-4.659809875E-1,8.420875455E0
8.597825083E0,8.631800079E0,-2.047292633E0,-5.254074097E-1,8.886812290E0
8.607809083E0,9.297166443E0,-2.007774811E0,-7.554789734E-1,9.541447062E0
8.617794083E0,9.996661835E0,-2.021695862E0,-9.776170349E-1,1.024579119E1
8.627779083E0,1.051024384E1,-2.068698120E0,-1.115929413E0,1.076986703E1
8.637764083E0,1.073073532E1,-2.181114349E0,-1.190324707E0,1.101466356E1
8.647749083E0,1.077160034E1,-2.396965485E0,-1.117875366E0,1.109154916E1
8.657733083E0,1.071397018E1,-2.682571564E0,-9.973759460E-1,1.108963958E1
8.667718083E0,1.069481003E1,-2.983894958E0,-1.052162018E0,1.115301016E1
8.677703083E0,1.116573074E1,-3.391647034E0,-1.462159424E0,1.176072799E1
8.687688083E0,1.242476257E1,-3.987557831E0,-2.292632446E0,1.324883036E1
8.697673083E0,1.385758301E1,-4.597239990E0,-3.201991425E0,1.494723959E1
8.707657083E0,1.519594986E1,-5.005740509E0,-3.721860352E0,1.642639871E1
8.717642083E0,1.598286346E1,-5.099295959E0,-3.616778870E0,1.716204630E1
8.727627083E0,1.555505310E1,-4.613556061E0,-2.446961517E0,1.640829660E1
8.737612083E0,1.434047882E1,-3.455264740E0,-7.650590515E-1,1.477069743E1
8.747597083E0,1.306737625E1,-1.829345856E0,6.718029785E-1,1.321189417E1
8.757581083E0,1.175700119E1,1.414558411E-1,1.771865387E0,1.189060948E1
8.767566083E0,1.074914703E1,1.803300018E0,1.942809906E0,1.107115907E1
8.777551083E0,1.010788055E1,2.723586273E0,1.155447235E0,1.053196230E1
8.787536083E0,9.607920227E0,2.865042114E0,-2.155517578E-2,1.002601925E1
8.797521083E0,8.890911255E0,2.626737671E0,-8.924441528E-1,9.313673298E0
8.807505083E0,8.151149597E0,2.274071045E0,-1.648072815E0,8.621414204E0
8.817490083E0,7.693850555E0,1.838925934E0,-2.262994080E0,8.227887163E0
8.827475083E0,7.449708252E0,1.413510590E0,-2.785557404E0,8.078087353E0
8.837460083E0,7.372319183E0,1.099313965E0,-3.143463135E0,8.089557578E0
8.847445083E0,7.573201447E0,7.885601807E-1,-3.382216644E0,8.331542278E0
8.857429083E0,7.929460602E0,2.884501648E-1,-3.478466492E0,8.663675783E0
8.867414083E0,8.281827850E0,-3.727249146E-1,-3.339854736E0,8.937685722E0
8.877399083E0,8.607999573E0,-1.100661163E0,-3.200943604E0,9.249602780E0
8.887384083E0,8.839268646E0,-1.719174957E0,-2.993325348E0,9.489374551E0
8.897369083E0,8.750054169E0,-2.223176880E0,-2.710862732E0,9.426279231E0
8.907354083E0,8.434510345E0,-2.597398682E0,-2.344873810E0,9.131586821E0
8.917338083E0,8.164471893E0,-2.844534760E0,-1.916015625E0,8.855568597E0
8.927323083E0,7.990084534E0,-2.898572388E0,-1.421444092E0,8.617637498E0
8.937308083E0,7.949219513E0,-2.728076935E0,-8.674461365E-1,8.448961914E0
8.947293083E0,8.067473602E0,-2.340832214E0,-3.597019958E-1,8.407913612E0
8.957278083E0,8.314459991E0,-1.864522705E0,7.888595581E-2,8.521321075E0
8.967262083E0,8.668623505E0,-1.449735260E0,4.733157349E-1,8.801749461E0
8.977247083E0,9.097930756E0,-1.050964508E0,6.809339905E-1,9.183710662E0
8.987232083E0,9.491462402E0,-6.738986206E-1,6.822811890E-1,9.539785402E0
8.997217083E0,9.680519257E0,-4.331991577E-1,5.760021973E-1,9.707311323E0
9.007202083E0,9.639055481E0,-3.080593872E-1,2.990780640E-1,9.648613312E0
9.017186083E0,9.470955048E0,-2.450404358E-1,-1.073268127E-1,9.474732364E0
9.027171083E0,9.248966675E0,-2.359094238E-1,-5.441184998E-1,9.267961089E0
9.037156083E0,9.041947174E0,-2.838098145E-1,-9.891430664E-1,9.100316517E0
9.047141083E0,8.936716003E0,-3.242257690E-1,-1.407972107E0,9.052756527E0
9.057126083E0,9.004674683E0,-3.311114502E-1,-1.735940094E0,9.176452961E0
9.067110083E0,9.076674957E0,-3.710783386E-1,-1.957180023E0,9.292700418E0
9.077095083E0,9.161099396E0,-4.724176025E-1,-2.016007690E0,9.392188645E0
9.087080083E0,9.299262085E0,-5.792953491E-1,-1.966610413E0,9.522573966E0
9.097065083E0,9.297316132E0,-7.340734863E-1,-1.901346130E0,9.518091628E0
9.107050083E0,9.216783600E0,-8.890013123E-1,-1.834435272E0,9.439522023E0
9.117034083E0,9.102720795E0,-1.032103729E0,-1.773212585E0,9.331079619E0
9.127019083E0,8.990304565E0,-1.149609375E0,-1.623823242E0,9.207821665E0
9.137004083E0,8.850944366E0,-1.201102295E0,-1.406774597E0,9.042172176E0
9.146989083E0,8.733887787E0,-1.241667938E0,-1.233734436E0,8.907560598E0
9.156974083E0,8.703351288E0,-1.328936462E0,-1.148112488E0,8.878770075E0
9.166958083E0,8.720565491E0,-1.383572845E0,-1.136586456E0,8.902492071E0
9.176943083E0,8.706345062E0,-1.436263275E0,-1.104104004E0,8.892825321E0
9.186928083E0,8.825347595E0,-1.556613007E0,-1.068927155E0,9.025098863E0
9.196913083E0,9.131461029E0,-1.751657410E0,-1.080602875E0,9.360533467E0
9.206898083E0,9.499545593E0,-1.985770569E0,-1.066083069E0,9.763256851E0
9.216882083E0,9.997260590E0,-2.200873260E0,-9.608518982E-1,1.028164864E1
9.226867083E0,1.059571609E1,-2.295326843E0,-8.349636841E-1,1.087358677E1
9.236852083E0,1.099718124E1,-2.258204041E0,-7.610174561E-1,1.125240545E1
9.246837083E0,1.121946899E1,-2.153122559E0,-8.315208435E-1,1.145442483E1
9.256822083E0,1.139250916E1,-2.066153412E0,-9.463320923E-1,1.161696170E1
9.266807083E0,1.153830597E1,-1.956431580E0,-1.115929413E0,1.175608045E1
9.276791083E0,1.167197800E1,-1.729653168E0,-1.281185760E0,1.186879132E1
9.286776083E0,1.175670181E1,-1.454674988E0,-1.488654327E0,1.193952296E1
9.296761083E0,1.186283112E1,-1.339714050E0,-1.838476868E0,1.207897318E1
9.306746083E0,1.211745163E1,-1.545086975E0,-2.321821747E0,1.243425848E1
9.316731083E0,1.265513351E1,-2.337389374E0,-2.819237366E0,1.317436498E1
9.326715083E0,1.362811020E1,-3.724105682E0,-3.129392395E0,1.447022624E1
9.336700083E0,1.439960587E1,-5.022805023E0,-2.936144257E0,1.553055577E1
9.346685083E0,1.463416809E1,-5.421426086E0,-2.105671234E0,1.574752640E1
9.356670083E0,1.388841888E1,-4.433480530E0,-7.210505676E-1,1.459670657E1
9.366655083E0,1.265678009E1,-2.315235443E0,4.775070190E-1,1.287565184E1
9.376639083E0,1.172122559E1,-5.957611084E-2,1.033750305E0,1.176687377E1
9.386624083E0,1.134161499E1,1.554367676E0,1.150806885E0,1.150533120E1
9.396609083E0,1.120794296E1,2.092648315E0,9.529183960E-1,1.144138173E1
9.406594083E0,1.120689514E1,1.603016510E0,3.047662354E-1,1.132506261E1
9.416579083E0,1.074076447E1,6.408174133E-1,-2.182461548E-1,1.076207692E1
9.426563167E0,9.968220978E0,-3.279679871E-1,-3.478765869E-1,9.979679884E0
9.436548167E0,9.189989319E0,-1.107397156E0,-1.954934692E-1,9.258533892E0
9.446533167E0,8.640931091E0,-1.612297211E0,8.202941895E-2,8.790444883E0
9.456518167E0,8.476423187E0,-1.894161072E0,3.915856934E-1,8.694304778E0
9.466503167E0,8.790021057E0,-2.019600220E0,6.622229004E-1,9.043328724E0
9.476487167E0,9.405092010E0,-2.121388550E0,7.500901794E-1,9.670505694E0
9.486472167E0,1.008213409E1,-2.195933533E0,6.885681152E-1,1.034145435E1
9.496457167E0,1.057071808E1,-2.287842407E0,4.980143738E-1,1.082692578E1
9.506442167E0,1.068268524E1,-2.368973694E0,1.565744019E-1,1.094332289E1
9.516427167E0,1.044048889E1,-2.348166962E0,-1.477427673E-1,1.070231397E1
9.526411167E0,1.003797592E1,-2.227068787E0,-4.085005188E-1,1.029017340E1
9.536396167E0,9.661957855E0,-2.093396759E0,-6.210585022E-1,9.905627353E0
9.546381167E0,9.222322083E0,-1.999990997E0,-8.349636841E-1,9.473560732E0
9.556366167E0,8.880283356E0,-1.931732941E0,-9.508227539E-1,9.137564694E0
9.566351167E0,8.655750275E0,-1.826202393E0,-9.943821716E-1,8.902012351E0
9.576336167E0,8.521778870E0,-1.727557526E0,-1.001417542E0,8.752600025E0
9.586320167E0,8.551417236E0,-1.662143555E0,-9.867480469E-1,8.767162007E0
9.596305167E0,8.694070587E0,-1.626667328E0,-9.906399536E-1,8.900240305E0
9.606290167E0,8.750802612E0,-1.570833435E0,-1.026714935E0,8.949760198E0
9.616275167E0,8.701704712E0,-1.450334015E0,-1.055155792E0,8.884620836E0
9.626260167E0,8.573122101E0,-1.308129730E0,-1.085542603E0,8.740024524E0
9.636244167E0,8.416547699E0,-1.230441284E0,-1.171164551E0,8.586261546E0
9.646229167E0,8.250542908E0,-1.219514008E0,-1.280437317E0,8.437902133E0
9.656214167E0,8.036038971E0,-1.250499573E0,-1.416504364E0,8.255189649E0
9.666199167E0,7.794291687E0,-1.320404205E0,-1.487606506E0,8.044092446E0
9.676184167E0,7.591613159E0,-1.404080200E0,-1.414558411E0,7.848885721E0
9.686168167E0,7.416177979E0,-1.491947479E0,-1.325194244E0,7.679957218E0
9.696153167E0,7.282356262E0,-1.597627716E0,-1.232985992E0,7.556810273E0
9.706138167E0,7.204368439E0,-1.669927368E0,-1.056952057E0,7.470524056E0
9.716123167E0,7.180118866E0,-1.676363983E0,-7.972421265E-1,7.416191620E0
9.726108167E0,7.156617737E0,-1.641935577E0,-5.417234802E-1,7.362512764E0
9.736092167E0,7.185507660E0,-1.588945770E0,-3.144960022E-1,7.365811342E0
9.746077167E0,7.270381165E0,-1.521585846E0,-1.460961914E-1,7.429334416E0
9.756062167E0,7.309000854E0,-1.508113861E0,-7.738906860E-2,7.463369881E0
9.766047167E0,7.372019806E0,-1.573378143E0,-1.303788757E-1,7.539177240E0
9.776032167E0,7.496710510E0,-1.733844452E0,-2.465373230E-1,7.698549585E0
9.786016167E0,7.674391022E0,-1.901046753E0,-3.490740967E-1,7.914045049E0
9.796001167E0,7.993677063E0,-2.035167847E0,-4.096980286E-1,8.258851835E0
9.805986167E0,8.361761627E0,-2.271676025E0,-4.894821167E-1,8.678661315E0
9.815971167E0,8.788374481E0,-2.548300781E0,-5.840853882E-1,9.168997690E0
9.825956167E0,9.300758972E0,-2.705324249E0,-6.258485413E-1,9.706419687E0
9.835940167E0,9.850415955E0,-2.729424133E0,-6.532415771E-1,1.024242037E1
9.845925167E0,1.023092468E1,-2.720442810E0,-6.532415771E-1,1.060657124E1
9.855910167E0,1.054736664E1,-2.816243591E0,-5.788462830E-1,1.093221085E1
9.865895167E0,1.083566711E1,-3.014431458E0,-3.887416077E-1,1.125387039E1
9.875880167E0,1.114312775E1,-3.263363800E0,-1.351689148E-1,1.161193825E1
9.885865167E0,1.141765686E1,-3.413351898E0,1.531315613E-1,1.191794062E1
9.895849167E0,1.151510422E1,-3.444936218E0,3.224295044E-1,1.202369209E1
9.905834167E0,1.160057648E1,-3.543730774E0,7.379653931E-2,1.212999787E1
9.915819167E0,1.197015793E1,-3.816763000E0,-6.417155457E-1,1.258030840E1
9.925804167E0,1.251218079E1,-4.332141266E0,-1.450184326E0,1.332010325E1
9.935789167E0,1.303698944E1,-4.925357666E0,-1.959874420E0,1.407349813E1
9.945773167E0,1.361927856E1,-5.255870361E0,-2.057022400E0,1.474246462E1
9.955758167E0,1.387749161E1,-4.986131287E0,-1.584006042E0,1.483089187E1
9.965743167E0,1.339220078E1,-3.946094055E0,-7.282356262E-1,1.398045160E1
9.975728167E0,1.268956192E1,-2.517165527E0,1.526824951E-1,1.293771293E1
9.985713167E0,1.216220856E1,-1.106499023E0,7.664062500E-1,1.223646336E1
9.995697167E0,1.113070358E1,1.977388000E-1,9.919871521E-1,1.117656930E1
1.000568217E1,9.797575836E0,1.077309723E0,9.322613525E-1,9.900616129E0
1.001566717E1,8.890611877E0,1.197958832E0,4.535568237E-1,8.982416084E0
1.002565217E1,8.398435364E0,7.358697510E-1,-2.838098145E-1,8.435387890E0
1.003563717E1,7.995473328E0,1.993853760E-1,-8.699908447E-1,8.045137185E0
1.004562117E1,7.538473663E0,-1.646575928E-3,-1.066981201E0,7.613608656E0
1.005560617E1,7.173083496E0,-1.137634277E-2,-1.043031006E0,7.248528812E0
1.006559117E1,7.285350037E0,-4.355941772E-2,-1.202748871E0,7.384092864E0
1.007557617E1,7.905809784E0,-9.744735718E-2,-1.514700165E0,8.050195086E0
1.008556117E1,8.821455688E0,-9.939331055E-2,-1.765877838E0,8.997015285E0
1.009554517E1,9.783654785E0,-1.249900818E-1,-1.995051270E0,9.985777538E0
1.010553017E1,1.055320450E1,-3.790118408E-1,-2.220332794E0,1.079090603E1
1.011551517E1,1.106783432E1,-1.012943573E0,-2.401755524E0,1.137063942E1
1.012550017E1,1.134041748E1,-1.658850403E0,-2.561473389E0,1.174384942E1
1.013548517E1,1.117052078E1,-1.935475159E0,-2.489323425E0,1.160703794E1
1.014546917E1,1.054482193E1,-1.977537689E0,-2.271376648E0,1.096645233E1
1.015545417E1,9.738598480E0,-2.051334229E0,-2.069745941E0,1.016524081E1
1.016543917E1,8.886121216E0,-2.152224426E0,-1.732946320E0,9.305822005E0
1.017542417E1,8.274044037E0,-2.191592560E0,-1.385967865E0,8.670858642E0
1.018540917E1,8.042325897E0,-2.229463806E0,-1.178948364E0,8.428489423E0
1.019539417E1,8.027506714E0,-2.226619720E0,-9.228309631E-1,8.381546182E0
1.020537817E1,8.113128662E0,-2.153721313E0,-6.059399414E-1,8.415969071E0
1.021536317E1,8.310717773E0,-1.978286133E0,-2.585124207E-1,8.546840036E0
1.022534817E1,8.468938751E0,-1.836530914E0,2.469863892E-2,8.665816718E0
1.023533317E1,8.393795013E0,-1.810934143E0,2.519261169E-1,8.590619533E0
1.024531817E1,8.229736176E0,-1.873354340E0,4.463717651E-1,8.452056658E0
1.025530217E1,8.177345123E0,-1.919907532E0,5.191204834E-1,8.415729575E0
1.026528717E1,8.221503296E0,-1.896107025E0,4.809498596E-1,8.451014795E0
1.027527217E1,8.319549408E0,-1.875749359E0,3.388952637E-1,8.535114997E0
1.028525717E1,8.462502136E0,-1.852098541E0,1.378633118E-1,8.663903145E0
1.029524217E1,8.573122101E0,-1.803000641E0,-9.116043091E-2,8.761138287E0
1.030522617E1,8.625962219E0,-1.790277100E0,-4.894821167E-1,8.823372884E0
1.031521117E1,8.317304077E0,-1.572929077E0,-1.816772003E0,8.657500419E0
1.032519617E1,8.471034393E0,-1.332229614E0,-3.009042664E0,9.087771850E0
1.033518117E1,8.325087891E0,-1.647923126E0,-2.907703400E0,8.970924037E0
1.034516617E1,8.335865479E0,-1.967358856E0,-2.764151917E0,8.999871664E0
1.035515017E1,8.327782288E0,-2.155517578E0,-2.557132416E0,8.974248718E0
1.036513517E1,8.127498779E0,-2.220632172E0,-2.151775360E0,8.695836984E0
1.037512017E1,8.139773254E0,-1.974843292E0,-1.927990723E0,8.594944031E0
1.038510517E1,8.456215210E0,-2.002984772E0,-1.691183167E0,8.853226766E0
1.039509017E1,8.734935608E0,-2.223326569E0,-1.616638184E0,9.157281263E0
1.040507417E1,8.809779968E0,-2.405048676E0,-1.877845001E0,9.323238926E0
1.041505917E1,8.906478882E0,-2.499651947E0,-1.699565735E0,9.405431921E0
1.042504408E1,9.165889435E0,-2.539020081E0,-1.037342834E0,9.567456938E0
1.043502908E1,9.284293213E0,-2.610271912E0,-5.721102905E-1,9.661207487E0
1.044501408E1,9.656718750E0,-2.861000519E0,-2.573149109E-1,1.007490704E1
1.045499908E1,1.024469604E1,-3.292104034E0,4.909790039E-2,1.076076933E1
1.046498308E1,1.033690430E1,-3.543132019E0,-2.257305908E-1,1.092960792E1
1.047496808E1,1.025981461E1,-3.452420654E0,-6.385720825E-1,1.084392818E1
1.048495308E1,1.028870453E1,-3.323388977E0,-4.635859680E-1,1.082207314E1
1.049493808E1,1.039064255E1,-3.443289642E0,-6.478527832E-1,1.096546439E1
1.050492308E1,1.073552536E1,-3.643273773E0,-7.664062500E-1,1.136276054E1
1.051490708E1,1.103684875E1,-3.659140778E0,-4.963677979E-1,1.163820101E1
1.052489208E1,1.127200974E1,-3.673810272E0,-2.395019531E-1,1.185801191E1
1.053487708E1,1.172406967E1,-4.141886902E0,-2.891986084E-1,1.243755091E1
1.054486208E1,1.228555206E1,-5.208269348E0,-5.846841431E-1,1.335674791E1
1.055484708E1,1.280886383E1,-6.635102234E0,-8.547225952E-1,1.445067905E1
1.056483108E1,1.302471497E1,-7.865693207E0,-5.703140259E-1,1.522621383E1
1.057481608E1,1.289613235E1,-8.255482635E0,1.652563477E-1,1.531308372E1
1.058480108E1,1.241084152E1,-7.351213074E0,1.182091827E0,1.447296314E1
1.059478608E1,1.166763702E1,-5.525759125E0,2.066153412E0,1.307427847E1
1.060477108E1,1.106948090E1,-3.594924316E0,2.581531677E0,1.192145939E1
1.061475508E1,1.041998154E1,-2.104773102E0,2.640658722E0,1.095350006E1
1.062474008E1,9.978699188E0,-1.363364868E0,2.382595367E0,1.034939428E1
1.063472508E1,9.756710815E0,-1.413809967E0,1.772464142E0,1.001668077E1
1.064471008E1,9.531728668E0,-1.932032318E0,9.397457886E-1,9.770860885E0
1.065469508E1,9.127419434E0,-2.393522644E0,3.143463135E-1,9.441268441E0
1.066468008E1,8.575068054E0,-2.526146851E0,-1.194515991E-1,8.940216929E0
1.067466408E1,7.995922394E0,-2.342778168E0,-3.412902832E-1,8.339056513E0
1.068464908E1,7.700885925E0,-2.095492401E0,-5.397775269E-1,7.999130716E0
1.069463408E1,7.916287994E0,-1.876048737E0,-8.270301819E-1,8.177478425E0
1.070461908E1,8.350984039E0,-1.724563751E0,-1.045575714E0,8.591058324E0
1.071460308E1,8.766669617E0,-1.649270325E0,-1.128652954E0,8.991576406E0
1.072458808E1,9.074729004E0,-1.618434448E0,-1.112486572E0,9.284808180E0
1.073457308E1,9.282496948E0,-1.706601105E0,-1.048719177E0,9.496159689E0
1.074455808E1,9.540709991E0,-2.004182281E0,-1.290316772E0,9.833962128E0
1.075454308E1,9.306447144E0,-2.660417633E0,-2.321672058E0,9.953790311E0
1.076452808E1,9.933343506E0,-2.820734253E0,-1.331780548E0,1.041160383E1
1.077451208E1,1.046967819E1,-2.699187012E0,-9.901908875E-1,1.085726715E1
1.078449708E1,1.063583267E1,-2.613864441E0,-1.285377045E0,1.102748467E1
1.079448208E1,1.053868469E1,-2.596201172E0,-1.163380737E0,1.091593286E1
1.080446708E1,1.016985168E1,-2.343676300E0,-7.698490906E-1,1.046476801E1
1.081445208E1,9.661508789E0,-1.982327728E0,-8.619076538E-1,9.900366665E0
1.082443608E1,9.154812469E0,-1.896855469E0,-1.227597198E0,9.429509367E0
1.083442108E1,8.775201874E0,-1.926194458E0,-1.274150391E0,9.074020731E0
1.084440608E1,8.374185791E0,-1.830243988E0,-1.272653503E0,8.665819503E0
1.085439108E1,8.033194885E0,-1.768123169E0,-1.415456543E0,8.346376269E0
1.086437608E1,8.049660645E0,-1.886826324E0,-1.290167084E0,8.367895863E0
1.087436008E1,8.276888123E0,-2.092648315E0,-1.120120697E0,8.610500818E0
1.088434508E1,8.580905914E0,-2.213147736E0,-9.467811584E-1,8.912146979E0
1.089433008E1,8.733887787E0,-2.223625946E0,-7.312294006E-1,9.042123902E0
1.090431508E1,8.756041718E0,-2.191143494E0,-5.391787720E-1,9.042128628E0
1.091430008E1,8.747808838E0,-2.268532562E0,-4.349954224E-1,9.047630655E0
1.092428408E1,8.749006348E0,-2.429447937E0,-4.311035156E-1,9.090279401E0
1.093426908E1,8.798553314E0,-2.582579498E0,-4.346960449E-1,9.180044550E0
1.094425408E1,8.744066620E0,-2.720293121E0,-4.119433594E-1,9.166700227E0
1.095423908E1,8.645122375E0,-2.841540985E0,-3.713777161E-1,9.107711978E0
1.096422408E1,8.726702728E0,-2.938688965E0,-3.179388428E-1,9.213702754E0
1.097420808E1,8.915609894E0,-2.983296204E0,-2.306703186E-1,9.404326920E0
1.098419308E1,9.133856049E0,-2.887046356E0,-1.749861145E-1,9.580865468E0
1.099417808E1,9.389524384E0,-2.746638336E0,-1.966909790E-1,9.784982250E0
1.100416308E1,9.699380035E0,-2.776426392E0,-3.317102051E-1,1.009438201E1
1.101414808E1,1.005623795E1,-2.891237640E0,-4.775070190E-1,1.047450188E1
1.102413308E1,1.029588959E1,-2.931054840E0,-5.722599792E-1,1.072025682E1
1.103411708E1,1.041519150E1,-2.869832153E0,-6.538403320E-1,1.082310758E1
1.104410208E1,1.061427750E1,-2.792742462E0,-7.225474548E-1,1.099928962E1
1.105408708E1,1.087548431E1,-2.735860748E0,-8.006849670E-1,1.124287283E1
1.106407208E1,1.106858276E1,-2.705324249E0,-8.363108826E-1,1.142504790E1
1.107405708E1,1.113564331E1,-2.723586273E0,-8.586145020E-1,1.149598595E1
1.108404108E1,1.100661163E1,-2.766546936E0,-8.882528687E-1,1.138368459E1
1.109402608E1,1.082773361E1,-2.869083710E0,-9.068142700E-1,1.123805004E1
1.110401108E1,1.055110886E1,-3.125949554E0,-9.389973450E-1,1.104441826E1
1.111399608E1,1.038585251E1,-3.508703613E0,-9.310638428E-1,1.100199133E1
1.112398108E1,1.026939468E1,-3.773353271E0,-7.740403748E-1,1.096803540E1
1.113396508E1,1.019035904E1,-3.732937317E0,-5.421725464E-1,1.086610277E1
1.114395008E1,1.038779846E1,-3.505859528E0,-4.993615723E-1,1.097482437E1
1.115393508E1,1.101544327E1,-3.369942169E0,-8.349636841E-1,1.154961752E1
1.116392008E1,1.202733902E1,-3.524271240E0,-1.470392303E0,1.261901047E1
1.117390508E1,1.328532303E1,-3.887565765E0,-1.951940918E0,1.397937942E1
1.118388908E1,1.453492447E1,-4.328698425E0,-1.996099091E0,1.529660325E1
1.119387408E1,1.504431519E1,-4.415368195E0,-1.441951447E0,1.574503476E1
1.120385908E1,1.389590332E1,-3.547922058E0,-2.237846375E-1,1.434342914E1
1.121384408E1,1.201102295E1,-2.017504578E0,8.243357849E-1,1.220715063E1
1.122382908E1,9.664951630E0,-3.068618774E-1,1.415007477E0,9.772804120E0
1.123381308E1,7.730823669E0,1.042132874E0,1.494342499E0,7.942589945E0
1.124379808E1,6.868167572E0,1.508712616E0,7.836204529E-1,7.075450556E0
1.125378308E1,7.050039368E0,1.113235016E0,-3.293151855E-1,7.144983959E0
1.126376808E1,7.387138367E0,2.707868958E-1,-1.346749420E0,7.513778862E0
1.127375308E1,7.481292572E0,-4.825964355E-1,-1.977537689E0,7.753276287E0
1.128373808E1,7.492519226E0,-1.061143341E0,-2.167342987E0,7.871546555E0
1.129372208E1,7.460934906E0,-1.462758179E0,-2.170935516E0,7.906843376E0
1.130370708E1,7.330855408E0,-1.704206085E0,-2.175725555E0,7.834509626E0
1.131369208E1,7.317383423E0,-1.888772278E0,-2.091450806E0,7.841283527E0
1.132367708E1,7.519463196E0,-1.974543915E0,-1.927691345E0,8.009815500E0
1.133366208E1,7.707921295E0,-2.127076721E0,-1.765877838E0,8.188701399E0
1.134364608E1,7.844437408E0,-2.377206573E0,-1.525926819E0,8.337551319E0
1.135363108E1,7.864346008E0,-2.559228058E0,-1.447190552E0,8.395948242E0
1.136361608E1,7.727680206E0,-2.594404907E0,-1.450184326E0,8.279553899E0
1.137360108E1,7.450606384E0,-2.418071594E0,-1.382225647E0,7.954190937E0
1.138358608E1,7.258256378E0,-2.079625397E0,-1.327140198E0,7.666056910E0
1.139357008E1,7.218888245E0,-1.652563477E0,-1.289568329E0,7.517067248E0
1.140355508E1,7.234006805E0,-1.275198212E0,-1.273701324E0,7.455152581E0
1.141354008E1,7.304360504E0,-1.009949799E0,-1.275647278E0,7.483378712E0
1.142352542E1,7.464976501E0,-8.553213501E-1,-1.339264984E0,7.632239480E0
1.143351042E1,7.708969116E0,-7.137158203E-1,-1.376088409E0,7.863282674E0
1.144349442E1,8.044870605E0,-4.845423889E-1,-1.410516815E0,8.181948550E0
1.145347942E1,8.371790771E0,-2.628533936E-1,-1.524878998E0,8.513590816E0
1.146346442E1,8.677305450E0,-1.231938171E-1,-1.662592621E0,8.836007063E0
1.147344942E1,8.974736938E0,1.332229614E-2,-1.785636749E0,9.150660042E0
1.148343442E1,9.059311066E0,1.725910950E-1,-1.834135895E0,9.244726018E0
1.149341842E1,8.997789001E0,2.636018372E-1,-1.855541382E0,9.190904562E0
1.150340342E1,9.018446045E0,2.661465454E-1,-1.982776794E0,9.237673239E0
1.151338842E1,9.173822937E0,1.905537415E-1,-2.093247070E0,9.411536607E0
1.152337342E1,9.260193329E0,1.225950623E-1,-2.120640106E0,9.500701263E0
1.153335842E1,9.128616943E0,1.261875916E-1,-2.047142944E0,9.356193929E0
1.154334342E1,8.866661682E0,1.859133911E-1,-1.958227844E0,9.082230423E0
1.155332742E1,8.657696228E0,3.032693481E-1,-1.955084381E0,8.880880092E0
1.156331242E1,8.596623230E0,3.957769775E-1,-2.047891388E0,8.846040329E0
1.157329742E1,8.744964752E0,3.805087280E-1,-2.139351196E0,9.010883361E0
1.158328242E1,8.943751373E0,2.972817993E-1,-2.186802521E0,9.212012286E0
1.159326742E1,8.878636780E0,2.740800476E-1,-2.203717346E0,9.152140792E0
1.160325142E1,8.616382141E0,2.571652222E-1,-2.200873260E0,8.896742003E0
1.161323642E1,8.466992798E0,2.216889954E-1,-2.289488983E0,8.773874449E0
1.162322142E1,8.470585327E0,1.528321838E-1,-2.388283539E0,8.802162900E0
1.163320642E1,8.542435913E0,3.727249146E-2,-2.419867859E0,8.878646351E0
1.164319142E1,8.729995880E0,-5.733078003E-2,-2.416874084E0,9.058553705E0
1.165317542E1,8.995543671E0,-1.450483704E-1,-2.308200073E0,9.288090898E0
1.166316042E1,9.428293762E0,-2.927911377E-1,-2.199975128E0,9.685986810E0
1.167314542E1,9.916428680E0,-4.808001709E-1,-2.023492126E0,1.013218866E1
1.168313042E1,1.016476227E1,-4.926255798E-1,-1.754052429E0,1.032675030E1
1.169311542E1,1.034783157E1,-4.085005188E-1,-1.558409271E0,1.047249399E1
1.170309942E1,1.076890594E1,-4.755610657E-1,-1.453028412E0,1.087689226E1
1.171308442E1,1.120854172E1,-6.125262451E-1,-1.224753113E0,1.129188275E1
1.172306942E1,1.144220581E1,-6.610253906E-1,-9.562115479E-1,1.150110294E1
1.173305442E1,1.154474258E1,-6.321354675E-1,-7.676037598E-1,1.158748860E1
1.174303942E1,1.157962006E1,-5.785469055E-1,-6.604266357E-1,1.161285841E1
1.175302342E1,1.144235550E1,-5.444178772E-1,-6.602769470E-1,1.147431287E1
1.176300842E1,1.139849670E1,-7.164102173E-1,-8.896000671E-1,1.145558200E1
1.177299342E1,1.205039108E1,-1.400637360E0,-1.535806274E0,1.222834458E1
1.178297842E1,1.323876984E1,-2.698887634E0,-2.070793762E0,1.366884077E1
1.179296342E1,1.454360641E1,-4.214635620E0,-2.110461273E0,1.528835137E1
1.180294842E1,1.564636322E1,-5.262157288E0,-1.626667328E0,1.658749613E1
1.181293242E1,1.566223022E1,-5.204527130E0,-6.267466736E-1,1.651621535E1
1.182291742E1,1.447938995E1,-3.789070587E0,5.234614563E-1,1.497610768E1
1.183290242E1,1.277638138E1,-1.713786163E0,1.273102570E0,1.295352362E1
1.184288742E1,1.118504059E1,1.989363098E-1,1.440005493E0,1.127911009E1
1.185287242E1,9.926757202E0,1.405128021E0,1.282233582E0,1.010737435E1
1.186285642E1,9.443262634E0,1.453028412E0,6.186634827E-1,9.574405739E0
1.187284142E1,9.620793457E0,6.327342224E-1,-3.492237854E-1,9.647900113E0
1.188282642E1,9.590556335E0,-3.841012573E-1,-1.160087585E0,9.668097424E0
1.189281142E1,9.345665588E0,-1.350042572E0,-1.660496979E0,9.587561236E0
1.190279642E1,9.120833130E0,-2.102976837E0,-1.734443207E0,9.519474870E0
1.191278042E1,8.935219116E0,-2.576292572E0,-1.546284485E0,9.426898736E0
1.192276542E1,8.885821838E0,-2.831511841E0,-1.139280853E0,9.395384500E0
1.193275042E1,9.250313873E0,-2.985691223E0,-7.423063660E-1,9.748521815E0
1.194273542E1,9.839937744E0,-3.142714691E0,-3.676354980E-1,1.033615917E1
1.195272042E1,1.030023056E1,-3.338657227E0,-7.439529419E-2,1.082806152E1
1.196270442E1,1.065589096E1,-3.492537231E0,1.586700439E-2,1.121365597E1
1.197268942E1,1.085617447E1,-3.524720306E0,4.490661621E-4,1.141403424E1
1.198267442E1,1.062221100E1,-3.511847076E0,8.083190918E-3,1.118769421E1
1.199265942E1,1.012449600E1,-3.474724274E0,1.541793823E-2,1.070417516E1
1.200264442E1,9.556726685E0,-3.444337463E0,-7.110214233E-2,1.015871749E1
1.201262942E1,9.021888885E0,-3.391796722E0,-9.116043091E-2,9.638831583E0
1.202261342E1,8.582702179E0,-3.245999908E0,-5.478607178E-2,9.176180775E0
1.203259842E1,8.318052521E0,-3.064427490E0,-8.831634521E-3,8.864580733E0
1.204258342E1,8.137527924E0,-2.847678223E0,-1.736389160E-2,8.621422938E0
1.205256842E1,8.019423523E0,-2.589465179E0,-8.472381592E-2,8.427553719E0
1.206255342E1,7.992180176E0,-2.355501709E0,-2.430944824E-1,8.335611987E0
1.207253742E1,7.957452393E0,-2.158810730E0,-4.224215698E-1,8.255904089E0
1.208252242E1,7.843838654E0,-2.007475433E0,-5.917195129E-1,8.118244541E0
1.209250742E1,7.743996277E0,-1.896705780E0,-8.330177307E-1,8.016289022E0
1.210249242E1,7.732470245E0,-1.879790955E0,-1.098116455E0,8.033092174E0
1.211247742E1,7.668403473E0,-1.966760101E0,-1.319805450E0,8.025860922E0
1.212246142E1,7.613318024E0,-2.084864502E0,-1.473835144E0,8.030034953E0
1.213244642E1,7.568411407E0,-2.192939758E0,-1.580114136E0,8.036578669E0
1.214243142E1,7.608527985E0,-2.354154510E0,-1.649869080E0,8.133499218E0
1.215241642E1,7.767048340E0,-2.500699768E0,-1.674717407E0,8.329778967E0
1.216240142E1,7.945626984E0,-2.542762299E0,-1.723216553E0,8.518691423E0
1.217238542E1,8.005951538E0,-2.456391907E0,-1.800605621E0,8.565704982E0
1.218237042E1,8.046217804E0,-2.372117157E0,-1.881287842E0,8.596964854E0
1.219235542E1,8.164621582E0,-2.370769958E0,-1.950743408E0,8.722786001E0
1.220234042E1,8.305478668E0,-2.408641205E0,-1.981429596E0,8.871786269E0
1.221232542E1,8.450227661E0,-2.386936340E0,-1.904339905E0,8.985005459E0
1.222230942E1,8.706943817E0,-2.320773926E0,-1.743873596E0,9.178123848E0
1.223229442E1,9.026529236E0,-2.258353729E0,-1.595532074E0,9.440556880E0
1.224227942E1,9.230105896E0,-2.210453339E0,-1.464404755E0,9.603407734E0
1.225226442E1,9.421857147E0,-2.225272522E0,-1.378782806E0,9.778766381E0
1.226224942E1,9.596394196E0,-2.304607544E0,-1.404978333E0,9.968749250E0
1.227223442E1,9.820478210E0,-2.399210815E0,-1.504072266E0,1.022057915E1
1.228221842E1,1.015847534E1,-2.479593658E0,-1.645977173E0,1.058547339E1
1.229220342E1,1.052955368E1,-2.542163544E0,-1.745520172E0,1.097182468E1
1.230218842E1,1.083536774E1,-2.631228333E0,-1.802102509E0,1.129496038E1
1.231217342E1,1.107157654E1,-2.808010712E0,-1.753902740E0,1.155599005E1
1.232215842E1,1.125060425E1,-3.078797607E0,-1.535506897E0,1.176490000E1
1.233214242E1,1.130853378E1,-3.422183533E0,-1.202748871E0,1.187606338E1
1.234212742E1,1.136137390E1,-3.770808563E0,-9.033714294E-1,1.200482795E1
1.235211242E1,1.140912460E1,-3.978726196E0,-7.282356262E-1,1.210490452E1
1.236209742E1,1.141795624E1,-3.959566040E0,-7.313790894E-1,1.210713852E1
1.237208242E1,1.129356491E1,-3.755091248E0,-9.981243896E-1,1.194326467E1
1.238206642E1,1.129281647E1,-3.544030151E0,-1.586550751E0,1.194173341E1
1.239205142E1,1.148022675E1,-3.472928009E0,-2.135159912E0,1.218260001E1
1.240203642E1,1.165251846E1,-3.589086456E0,-2.551893311E0,1.245692127E1
1.241202142E1,1.185744232E1,-3.731889496E0,-2.690954132E0,1.271877242E1
1.242200642E1,1.210457840E1,-3.732488251E0,-2.376607819E0,1.288800029E1
1.243199117E1,1.206042023E1,-3.330723724E0,-1.745220795E0,1.263302229E1
1.244197617E1,1.168904251E1,-2.566413116E0,-1.023571472E0,1.201115688E1
1.245196117E1,1.119447098E1,-1.665586395E0,-3.294648743E-1,1.132249556E1
1.246194617E1,1.059047699E1,-8.481362915E-1,1.222956848E-1,1.062508797E1
1.247193117E1,9.784253540E0,-1.435514832E-1,4.171824646E-1,9.794195504E0
1.248191617E1,9.005273438E0,3.010240173E-1,5.444178772E-1,9.026735621E0
1.249190017E1,8.404871979E0,3.373983765E-1,5.123844910E-1,8.427232553E0
1.250188517E1,8.024662628E0,5.328918457E-2,4.090992737E-1,8.035260559E0
1.251187017E1,7.914791107E0,-2.920426941E-1,2.046244812E-1,7.922820103E0
1.252185517E1,8.033943329E0,-5.141807556E-1,-6.182144165E-2,8.050617936E0
1.253184017E1,8.244555359E0,-6.944059753E-1,-2.615061951E-1,8.277878848E0
1.254182417E1,8.693920898E0,-9.042695618E-1,-5.701643372E-1,8.759397890E0
1.255180917E1,9.184899902E0,-1.088835754E0,-9.322613525E-1,9.296077708E0
1.256179417E1,9.426198120E0,-1.193318481E0,-1.270258484E0,9.585967693E0
1.257177917E1,9.338031464E0,-1.301393738E0,-1.554068298E0,9.555500277E0
1.258176417E1,9.105564880E0,-1.595532074E0,-1.930385742E0,9.443697555E0
1.259174817E1,8.662336578E0,-1.904339905E0,-2.262694702E0,9.153271152E0
1.260173317E1,8.202642517E0,-2.043999481E0,-2.428549805E0,8.795404044E0
1.261171817E1,7.882458344E0,-2.086361389E0,-2.517165527E0,8.533591019E0
1.262170317E1,7.704029388E0,-2.018253021E0,-2.496209106E0,8.346045410E0
1.263168817E1,7.692653046E0,-1.743723907E0,-2.230811005E0,8.197194745E0
1.264167217E1,7.871680756E0,-1.317859497E0,-1.885179749E0,8.200854483E0
1.265165717E1,8.192014618E0,-9.244775391E-1,-1.642983398E0,8.406138035E0
1.266164217E1,8.617429962E0,-5.542973328E-1,-1.409019928E0,8.749438944E0
1.267162717E1,8.930728455E0,-1.998344421E-1,-1.077908478E0,8.997762567E0
1.268161217E1,9.035061493E0,4.385879517E-2,-7.906558228E-1,9.069696599E0
1.269159717E1,8.989107056E0,9.879455566E-2,-6.911128235E-1,9.016176737E0
1.270158117E1,8.880882111E0,-5.224136353E-2,-7.702981567E-1,8.914379141E0
1.271156617E1,8.852441254E0,-3.144960022E-1,-9.713301086E-1,8.911122604E0
1.272155117E1,8.807235260E0,-4.915777588E-1,-1.223106537E0,8.905337232E0
1.273153617E1,8.708440704E0,-5.843847656E-1,-1.410067749E0,8.841195401E0
1.274152117E1,8.655750275E0,-6.544390869E-1,-1.550924835E0,8.817917622E0
1.275150517E1,8.633147278E0,-6.941065979E-1,-1.632954254E0,8.813600597E0
1.276149017E1,8.613088989E0,-7.393125916E-1,-1.673669586E0,8.805285624E0
1.277147517E1,8.627758484E0,-8.405021667E-1,-1.652264099E0,8.824660730E0
1.278146017E1,8.658744049E0,-9.654922485E-1,-1.622925110E0,8.862274522E0
1.279144517E1,8.614735565E0,-1.104553070E0,-1.582658844E0,8.828279298E0
1.280142917E1,8.519982605E0,-1.250200195E0,-1.535357208E0,8.747023830E0
1.281141417E1,8.486302643E0,-1.367855530E0,-1.467398529E0,8.720184616E0
1.282139917E1,8.412805481E0,-1.463506622E0,-1.391805725E0,8.651836272E0
1.283138417E1,8.257428589E0,-1.572330322E0,-1.331930237E0,8.510663176E0
1.284136917E1,8.079598389E0,-1.639091492E0,-1.276395721E0,8.342404754E0
1.285135417E1,7.931256866E0,-1.661245422E0,-1.235381012E0,8.196995674E0
1.286133817E1,8.016130371E0,-1.703008575E0,-1.284927979E0,8.295156674E0
1.287132317E1,8.203241272E0,-1.785337372E0,-1.471290436E0,8.523220779E0
1.288130817E1,8.499026184E0,-1.912123718E0,-1.745969238E0,8.884709999E0
1.289129317E1,8.864865417E0,-2.058219910E0,-2.022294617E0,9.322648957E0
1.290127817E1,9.200018463E0,-2.274819489E0,-2.138752441E0,9.715421012E0
1.291126217E1,9.538614349E0,-2.534379730E0,-2.139051819E0,1.009870224E1
1.292124717E1,9.853559418E0,-2.732118530E0,-2.107617188E0,1.044026604E1
1.293123217E1,1.017359390E1,-2.824177094E0,-2.004182281E0,1.074684771E1
1.294121717E1,1.060993652E1,-2.828667755E0,-1.954186249E0,1.115306945E1
1.295120217E1,1.115794693E1,-2.790347443E0,-1.957778778E0,1.166699260E1
1.296118617E1,1.156016052E1,-2.721790009E0,-2.011666718E0,1.204542466E1
1.297117117E1,1.172287216E1,-2.594255219E0,-2.083367615E0,1.218590631E1
1.298115617E1,1.174038574E1,-2.429747314E0,-2.231260071E0,1.219503386E1
1.299114117E1,1.211894852E1,-2.735711060E0,-2.661315765E0,1.270573216E1
1.300112617E1,1.319880295E1,-3.887715454E0,-3.366199951E0,1.416524030E1
1.301111017E1,1.424647430E1,-5.394182739E0,-3.623365173E0,1.565848054E1
1.302109517E1,1.474418930E1,-6.319857788E0,-3.016078033E0,1.632263604E1
1.303108017E1,1.501572464E1,-6.190526733E0,-1.821112976E0,1.634353267E1
1.304106517E1,1.464359848E1,-4.887336731E0,-5.743556213E-1,1.544833069E1
1.305105017E1,1.360939911E1,-2.787952423E0,4.227209473E-1,1.389845732E1
1.306103517E1,1.251068390E1,-6.430627441E-1,8.527766418E-1,1.255619247E1
1.307101917E1,1.161928757E1,1.005459137E0,6.848258972E-1,1.168279839E1
1.308100417E1,1.119926102E1,1.591939545E0,1.037342834E-1,1.131231540E1
1.309098917E1,1.119297409E1,1.129850464E0,-8.190966797E-1,1.127963432E1
1.310097417E1,1.088251968E1,2.891986084E-1,-1.550176392E0,1.099617740E1
1.311095917E1,1.026834686E1,-5.453160095E-1,-1.906136169E0,1.045799560E1
1.312094317E1,9.619895325E0,-1.270108795E0,-1.887275391E0,9.885209700E0
1.313092817E1,9.241332550E0,-1.779050446E0,-1.657952271E0,9.555943361E0
1.314091317E1,9.323062592E0,-2.145189056E0,-1.402134247E0,9.668883732E0
1.315089817E1,9.721084900E0,-2.441572723E0,-1.123563538E0,1.008579020E1
1.316088317E1,1.018197647E1,-2.623893585E0,-7.638615417E-1,1.054234067E1
1.317086717E1,1.048823959E1,-2.762205963E0,-5.492079163E-1,1.085976892E1
1.318085217E1,1.062759979E1,-2.888094177E0,-4.634362793E-1,1.102278270E1
1.319083717E1,1.059751236E1,-2.974913635E0,-4.245172119E-1,1.101533450E1
1.320082217E1,1.044632675E1,-2.938539276E0,-4.046086121E-1,1.085930310E1
1.321080717E1,1.006327332E1,-2.827320557E0,-4.552033997E-1,1.046281136E1
1.322079117E1,9.530082092E0,-2.767145691E0,-5.843847656E-1,9.940878508E0
1.323077617E1,9.068292389E0,-2.740800476E0,-7.129673767E-1,9.500222975E0
1.324076117E1,8.695417786E0,-2.713108063E0,-7.704478455E-1,9.141380405E0
1.325074617E1,8.444988556E0,-2.627486115E0,-7.740403748E-1,8.878099656E0
1.326073117E1,8.322692871E0,-2.480342102E0,-7.473957825E-1,8.716531078E0
1.327071617E1,8.233927460E0,-2.286046143E0,-6.698570251E-1,8.571597098E0
1.328070017E1,8.182733917E0,-2.127974854E0,-6.623725891E-1,8.480810621E0
1.329068517E1,8.187224579E0,-2.016756134E0,-7.223977661E-1,8.462848819E0
1.330067017E1,8.200696564E0,-1.937421112E0,-7.976911926E-1,8.464120506E0
1.331065517E1,8.134234772E0,-1.876946869E0,-9.427395630E-1,8.401039385E0
1.332064017E1,7.984246674E0,-1.862726440E0,-1.115180969E0,8.274150913E0
1.333062417E1,7.862100677E0,-1.909579010E0,-1.246907043E0,8.186201575E0
1.334060917E1,7.784262543E0,-1.956730957E0,-1.359472961E0,8.140743584E0
1.335059417E1,7.773634644E0,-1.983225861E0,-1.436412964E0,8.150206291E0
1.336057917E1,7.778424683E0,-1.968256989E0,-1.509760437E0,8.164392365E0
1.337056417E1,7.749983826E0,-1.939666443E0,-1.567689972E0,8.141388521E0
1.338054817E1,7.671397247E0,-1.870210876E0,-1.582808533E0,8.053155115E0
1.339053317E1,7.632927246E0,-1.809886322E0,-1.567540283E0,7.999653079E0
1.340051817E1,7.611521759E0,-1.767374725E0,-1.571731567E0,7.970521754E0
1.341050317E1,7.622449036E0,-1.755998383E0,-1.563947754E0,7.976916209E0
1.342048817E1,7.704328766E0,-1.743574219E0,-1.555714874E0,8.050899425E0
1.343047292E1,7.760761414E0,-1.717977448E0,-1.541344757E0,8.096703520E0
1.344045692E1,7.816595306E0,-1.741628265E0,-1.487905884E0,8.145323512E0
1.345044192E1,7.865693207E0,-1.807640991E0,-1.475631409E0,8.204522145E0
1.346042692E1,7.889044647E0,-2.000889130E0,-1.531315613E0,8.281636931E0
1.347041192E1,7.986941071E0,-2.298470306E0,-1.546134796E0,8.453681223E0
1.348039692E1,8.188272400E0,-2.576741638E0,-1.543141022E0,8.721736443E0
1.349038092E1,8.493038635E0,-2.795137482E0,-1.480421448E0,9.062899451E0
1.350036592E1,8.972042542E0,-2.972219238E0,-1.330882416E0,9.544783003E0
1.351035092E1,9.609267426E0,-3.087180176E0,-1.094673615E0,1.015219248E1
1.352033592E1,1.002719833E1,-3.125799866E0,-8.704399109E-1,1.053911746E1
1.353032092E1,1.021281235E1,-3.101250916E0,-6.944059753E-1,1.069586336E1
1.354030492E1,1.039019348E1,-3.061284027E0,-4.790039062E-1,1.084237175E1
1.355028992E1,1.045919998E1,-3.088078308E0,-2.978805542E-1,1.090962074E1
1.356027492E1,1.043180695E1,-3.165018311E0,-1.441502380E-1,1.090232619E1
1.357025992E1,1.033705399E1,-3.233575745E0,-3.008743286E-2,1.083104808E1
1.358024492E1,1.026041336E1,-3.319048004E0,-5.328918457E-2,1.078401603E1
1.359022992E1,1.032956955E1,-3.442990265E0,-2.396516418E-1,1.089089629E1
1.360021392E1,1.059706329E1,-3.523522797E0,-6.611750793E-1,1.118705126E1
1.361019892E1,1.082773361E1,-3.475622406E0,-1.046623535E0,1.141994690E1
1.362018392E1,1.106109833E1,-3.288361816E0,-1.449884949E0,1.163027885E1
1.363016892E1,1.152363647E1,-3.153941345E0,-2.005978546E0,1.211468091E1
1.364015392E1,1.217089050E1,-3.249442749E0,-2.641257477E0,1.287111863E1
1.365013792E1,1.281275574E1,-3.520678711E0,-3.065325623E0,1.363664582E1
1.366012292E1,1.327873672E1,-3.699257355E0,-3.096610565E0,1.412792805E1
1.367010792E1,1.327289886E1,-3.366798706E0,-2.587519226E0,1.393558156E1
1.368009292E1,1.275796967E1,-2.564018097E0,-1.757195892E0,1.313117345E1
1.369007792E1,1.197734299E1,-1.535506897E0,-9.732760620E-1,1.211452817E1
1.370006192E1,1.132020950E1,-5.475613403E-1,-4.086502075E-1,1.134080957E1
1.371004692E1,1.052491333E1,2.743794250E-1,3.592529297E-2,1.052855048E1
1.372003192E1,9.693841553E0,7.435038757E-1,2.637515259E-1,9.725889519E0
1.373001692E1,9.154064026E0,7.024891663E-1,9.250762939E-2,9.181445250E0
1.374000192E1,8.795559540E0,2.850073242E-1,-7.170089722E-2,8.800468045E0
1.374998692E1,8.465196533E0,-2.308200073E-1,-1.058299255E-1,8.469004085E0
1.375997092E1,8.391699371E0,-6.471043396E-1,-5.029541016E-2,8.416762560E0
1.376995592E1,8.568182373E0,-9.770182800E-1,-6.735992432E-2,8.623969577E0
1.377994092E1,8.886719971E0,-1.249601440E0,-2.547702026E-1,8.977761606E0
1.378992592E1,9.344019012E0,-1.460213470E0,-6.050418091E-1,9.476760537E0
1.379990992E1,9.756411438E0,-1.666933594E0,-8.984317017E-1,9.938481336E0
1.380989492E1,1.003767654E1,-1.761387177E0,-1.197659454E0,1.026118041E1
1.381987992E1,9.997260590E0,-1.732197876E0,-1.379082184E0,1.023951153E1
1.382986492E1,9.785750427E0,-1.756597137E0,-1.676962738E0,1.008259634E1
1.383984992E1,9.279203796E0,-1.759141846E0,-1.933678894E0,9.640400261E0
1.384983492E1,8.645272064E0,-1.807940369E0,-2.050735474E0,9.067242879E0
1.385981892E1,8.208181000E0,-1.811682587E0,-2.189347229E0,8.686176973E0
1.386980392E1,7.768694916E0,-1.692829742E0,-2.226320343E0,8.256802983E0
1.387978892E1,7.507039032E0,-1.501527557E0,-2.136806488E0,7.948343349E0
1.388977392E1,7.641010437E0,-1.288819885E0,-2.021845551E0,8.008367913E0
1.389975892E1,7.939789124E0,-1.056353302E0,-1.838626556E0,8.218070408E0
1.390974392E1,8.133785706E0,-8.089178467E-1,-1.607058105E0,8.330393373E0
1.391972792E1,8.208929443E0,-5.930667114E-1,-1.311273193E0,8.334127916E0
1.392971292E1,8.224497070E0,-4.260140991E-1,-9.710307312E-1,8.292571420E0
1.393969792E1,8.153095551E0,-3.418890381E-1,-7.406597900E-1,8.193804495E0
1.394968292E1,8.197702789E0,-3.773652649E-1,-6.129753113E-1,8.229245062E0
1.395966792E1,8.295898590E0,-4.534071350E-1,-6.251000977E-1,8.331762213E0
1.396965192E1,8.372988281E0,-5.234614563E-1,-7.011419678E-1,8.418583296E0
1.397963692E1,8.378377075E0,-5.577401733E-1,-8.116122437E-1,8.436053043E0
1.398962192E1,8.407416687E0,-5.390290833E-1,-9.509724426E-1,8.478181190E0
1.399960692E1,8.433462524E0,-5.092410278E-1,-1.076411591E0,8.517116794E0
1.400959192E1,8.371192017E0,-5.430706787E-1,-1.243164825E0,8.480403311E0
1.401957592E1,8.363857269E0,-5.915698242E-1,-1.386416931E0,8.498600778E0
1.402956092E1,8.352780304E0,-5.929170227E-1,-1.401086426E0,8.490202152E0
1.403954592E1,8.270900574E0,-5.569917297E-1,-1.331780548E0,8.395932081E0
1.404953092E1,8.132588196E0,-5.255570984E-1,-1.235680389E0,8.242700228E0
1.405951592E1,8.093818817E0,-5.102888489E-1,-1.181493073E0,8.195500206E0
1.406949992E1,8.240513763E0,-5.357359314E-1,-1.131197662E0,8.335027788E0
1.407948492E1,8.409961395E0,-6.080355835E-1,-1.066083069E0,8.499040596E0
1.408946992E1,8.496780853E0,-6.677613831E-1,-9.598040771E-1,8.576853386E0
1.409945492E1,8.659941559E0,-6.926097107E-1,-9.753717041E-1,8.742176272E0
1.410943992E1,8.872050476E0,-7.791297913E-1,-1.111588440E0,8.975296749E0
1.411942392E1,9.244026947E0,-9.231303406E-1,-1.337468719E0,9.385788534E0
1.412940892E1,9.765093384E0,-1.109642487E0,-1.610950012E0,9.959092086E0
1.413939392E1,1.043285477E1,-1.382225647E0,-1.818717957E0,1.068001598E1
1.414937892E1,1.123458755E1,-1.698218536E0,-1.865570526E0,1.151435005E1
1.415936392E1,1.196372131E1,-1.907633057E0,-1.683099976E0,1.223121078E1
1.416934892E1,1.249975662E1,-1.879790955E0,-1.436562653E0,1.272168393E1
1.417933292E1,1.277009445E1,-1.710043945E0,-1.292711792E0,1.294877084E1
1.418931792E1,1.277563293E1,-1.578168182E0,-1.287921753E0,1.293700716E1
1.419930292E1,1.252071304E1,-1.486408997E0,-1.410816193E0,1.268731923E1
1.420928792E1,1.229588058E1,-1.495989075E0,-1.784588928E0,1.251444846E1
1.421927292E1,1.257295441E1,-1.935475159E0,-2.428250427E0,1.295073924E1
1.422925692E1,1.330702789E1,-3.092119904E0,-3.099304962E0,1.400870758E1
1.423924192E1,1.417537216E1,-4.828808441E0,-3.401376801E0,1.535669011E1
1.424922692E1,1.475152405E1,-6.199657745E0,-3.047512665E0,1.628897024E1
1.425921192E1,1.459944031E1,-6.393654327E0,-2.130070496E0,1.607979083E1
1.426919692E1,1.333082840E1,-5.195545807E0,-1.009800110E0,1.434309514E1
1.427918092E1,1.176598251E1,-3.279530182E0,-1.791773987E-1,1.221579990E1
1.428916592E1,1.063448547E1,-1.455423431E0,-5.972579956E-2,1.073378339E1
1.429915092E1,9.782457275E0,-2.883004761E-1,-4.623884583E-1,9.797621681E0
1.430913592E1,9.358987885E0,-9.280700684E-3,-1.143172760E0,9.428551549E0
1.431912092E1,9.201515350E0,-4.315525818E-1,-1.840572510E0,9.393712234E0
1.432910592E1,8.928632812E0,-1.233584747E0,-2.367027740E0,9.319068384E0
1.433908992E1,8.507708130E0,-2.214195557E0,-2.543061676E0,9.151552998E0
1.434907492E1,8.045169983E0,-3.122506714E0,-2.411784668E0,8.960553193E0
1.435905992E1,7.808961182E0,-3.743565216E0,-2.179018707E0,8.929853179E0
1.436904492E1,7.770042114E0,-4.144880676E0,-1.926493835E0,9.014708469E0
1.437902992E1,8.000413055E0,-4.489015045E0,-1.672621765E0,9.324994837E0
1.438901392E1,8.484356689E0,-4.688550110E0,-1.406026154E0,9.795086529E0
1.439899892E1,9.011859741E0,-4.717889099E0,-1.144220581E0,1.023627541E1
1.440898392E1,9.280251617E0,-4.624633026E0,-7.921527100E-1,1.039893296E1
1.441896892E1,9.397158508E0,-4.416416016E0,-4.725672913E-1,1.039397125E1
1.442895342E1,9.473350067E0,-4.099974060E0,-3.056643677E-1,1.032703149E1
1.443893742E1,9.429790649E0,-3.812422028E0,-2.872526550E-1,1.017536375E1
1.444892242E1,9.204658813E0,-3.611240387E0,-3.141966248E-1,9.892700366E0
1.445890742E1,8.916508026E0,-3.507057037E0,-3.688330078E-1,9.588514078E0
1.446889242E1,8.592431946E0,-3.514391785E0,-4.724176025E-1,9.295375988E0
1.447887742E1,8.322094116E0,-3.487298126E0,-5.406756592E-1,9.039404232E0
1.448886242E1,8.173902283E0,-3.366349640E0,-6.158193970E-1,8.861389392E0
1.449884642E1,8.050409088E0,-3.141666870E0,-6.843768311E-1,8.668767436E0
1.450883142E1,7.965834961E0,-2.890638885E0,-7.397616577E-1,8.506325123E0
1.451881642E1,7.946974182E0,-2.695145416E0,-8.180488586E-1,8.431335090E0
1.452880142E1,7.868387604E0,-2.571203156E0,-9.663903809E-1,8.334057806E0
1.453878642E1,7.784561920E0,-2.532882843E0,-1.180445251E0,8.270934093E0
1.454877042E1,7.746540985E0,-2.559826813E0,-1.429676971E0,8.282848954E0
1.455875542E1,7.696994019E0,-2.590662689E0,-1.602717133E0,8.277919563E0
1.456874042E1,7.638465729E0,-2.672392731E0,-1.663640442E0,8.261691178E0
1.457872542E1,7.646997986E0,-2.752027130E0,-1.671573944E0,8.297252013E0
1.458871042E1,7.725584564E0,-2.749183044E0,-1.565444641E0,8.348250188E0
1.459869442E1,7.885152740E0,-2.725532227E0,-1.301842804E0,8.443870815E0
1.460867942E1,8.117020569E0,-2.686014404E0,-1.010398865E0,8.609390348E0
1.461866442E1,8.405021667E0,-2.620301056E0,-7.366181946E-1,8.834759375E0
1.462864942E1,8.644074554E0,-2.543660431E0,-5.107379150E-1,9.025025568E0
1.463863442E1,8.755143585E0,-2.441872101E0,-4.182302856E-1,9.098911755E0
1.464861942E1,8.769813080E0,-2.372566223E0,-4.339476013E-1,9.095438552E0
1.465860342E1,8.835376740E0,-2.304008789E0,-5.197192383E-1,9.145624457E0
1.466858842E1,8.970545654E0,-2.236798553E0,-6.930587769E-1,9.271153519E0
1.467857342E1,9.207802277E0,-2.215542755E0,-8.153544617E-1,9.505632823E0
1.468855842E1,9.607471161E0,-2.261796570E0,-9.186396790E-1,9.912775832E0
1.469854342E1,1.005563919E1,-2.358944550E0,-9.969268799E-1,1.037662576E1
1.470852742E1,1.066592010E1,-2.484683075E0,-9.852511597E-1,1.099573652E1
1.471851242E1,1.136661301E1,-2.616109772E0,-9.045689392E-1,1.169881048E1
1.472849742E1,1.193393326E1,-2.702480164E0,-7.920030212E-1,1.226170587E1
1.473848242E1,1.223151443E1,-2.670446777E0,-6.836283875E-1,1.253828454E1
1.474846742E1,1.229513214E1,-2.578837280E0,-6.867718506E-1,1.258142805E1
1.475845142E1,1.217358490E1,-2.487078094E0,-6.836283875E-1,1.244383681E1
1.476843642E1,1.188423660E1,-2.455942841E0,-6.571334839E-1,1.215312961E1
1.477842142E1,1.158381134E1,-2.550695801E0,-6.626719666E-1,1.187980927E1
1.478840642E1,1.133996841E1,-2.755469971E0,-6.265969849E-1,1.168674986E1
1.479839142E1,1.135299133E1,-3.103047180E0,-7.803273010E-1,1.179526281E1
1.480837642E1,1.162317947E1,-3.538192291E0,-1.147663422E0,1.220386157E1
1.481836042E1,1.199126404E1,-3.993844757E0,-1.506916351E0,1.272839370E1
1.482834542E1,1.232521957E1,-4.392016754E0,-1.678609314E0,1.319161013E1
1.483833042E1,1.264705032E1,-4.687352600E0,-1.605710907E0,1.358298435E1
1.484831542E1,1.252849686E1,-4.678820343E0,-1.007405090E0,1.341154198E1
1.485830042E1,1.167033142E1,-4.149071960E0,-8.532257080E-3,1.238593987E1
1.486828442E1,1.047970734E1,-3.184627533E0,9.572593689E-1,1.099465615E1
1.487826942E1,9.579479370E0,-2.193239136E0,1.433269501E0,9.931313326E0
1.488825442E1,8.580007782E0,-1.182391205E0,1.715881805E0,8.829429929E0
1.489823942E1,7.837701416E0,-5.758525085E-1,1.607207794E0,8.021489045E0
1.490822442E1,7.530091095E0,-4.430786133E-1,1.083446960E0,7.620528057E0
1.491820842E1,7.356302490E0,-5.069956970E-1,6.346801758E-1,7.401016815E0
1.492819342E1,7.094496918E0,-7.508386230E-1,3.507206726E-1,7.142734080E0
1.493817842E1,6.994654541E0,-1.058448944E0,5.568420410E-2,7.074504014E0
1.494816342E1,7.241042175E0,-1.221909027E0,-2.884501648E-1,7.349078647E0
1.495814842E1,7.734865265E0,-1.229094086E0,-7.623646545E-1,7.868927043E0
1.496813342E1,8.386609955E0,-1.229692841E0,-1.365161133E0,8.585513143E0
1.497811742E1,9.187594299E0,-1.273851013E0,-1.838177490E0,9.455870235E0
1.498810242E1,9.919123077E0,-1.430126038E0,-2.280956726E0,1.027798748E1
1.499808742E1,1.019110748E1,-1.663041687E0,-2.585273895E0,1.064462402E1
1.500807242E1,9.869875488E0,-2.027833099E0,-2.761607208E0,1.044763244E1
1.501805742E1,9.300160217E0,-2.473755798E0,-2.716401215E0,9.999564159E0
1.502804142E1,8.873846741E0,-2.852767639E0,-2.602637787E0,9.677663077E0
1.503802642E1,8.418493652E0,-3.045117645E0,-2.346520386E0,9.254724997E0
1.504801142E1,7.858208771E0,-3.001857605E0,-1.888772278E0,8.621487974E0
1.505799642E1,7.502099304E0,-2.921025696E0,-1.463955688E0,8.182728845E0
1.506798142E1,7.437433777E0,-2.852767639E0,-1.132993927E0,8.045954240E0
1.507796542E1,7.521558838E0,-2.711910553E0,-8.210426331E-1,8.037562890E0
1.508795042E1,7.726033630E0,-2.450404358E0,-5.056484985E-1,8.121068746E0
1.509793542E1,7.991880798E0,-2.216141510E0,-2.487826538E-1,8.297188361E0
1.510792042E1,8.264463959E0,-1.987716522E0,-8.143066406E-2,8.500530128E0
1.511790542E1,8.361312561E0,-1.772763519E0,1.796264648E-2,8.547196084E0
1.512789042E1,8.401429138E0,-1.687291260E0,2.814147949E-2,8.569233064E0
1.513787442E1,8.463849335E0,-1.725312195E0,-1.061293030E-1,8.638559553E0
1.514785942E1,8.455466766E0,-1.843865662E0,-3.454815674E-1,8.661069006E0
1.515784442E1,8.369545441E0,-2.027982788E0,-5.780978394E-1,8.631118246E0
1.516782942E1,8.323890381E0,-2.163900146E0,-8.114625549E-1,8.638754910E0
1.517781442E1,8.288863220E0,-2.214944000E0,-1.056502991E0,8.644502818E0
1.518779842E1,8.221054230E0,-2.219434662E0,-1.277293854E0,8.610638911E0
1.519778342E1,8.107141113E0,-2.209106140E0,-1.489702148E0,8.533762327E0
1.520776842E1,8.086633759E0,-2.264191589E0,-1.656754761E0,8.559500303E0
1.521775342E1,8.059689789E0,-2.362686768E0,-1.761985931E0,8.581694627E0
1.522773842E1,7.990234222E0,-2.495460663E0,-1.804347839E0,8.563109130E0
1.523772242E1,7.986192627E0,-2.646346893E0,-1.801952820E0,8.604037338E0
1.524770742E1,7.996670837E0,-2.726580048E0,-1.715881805E0,8.621208361E0
1.525769242E1,8.150700531E0,-2.812201996E0,-1.559606781E0,8.762121462E0
1.526767742E1,8.441246338E0,-2.912044373E0,-1.359023895E0,9.032252660E0
1.527766242E1,8.597072296E0,-2.933599548E0,-1.044677582E0,9.143686873E0
1.528764742E1,8.818611603E0,-2.897674255E0,-8.360115051E-1,9.320050532E0
1.529763142E1,9.184450836E0,-2.887645111E0,-7.694000244E-1,9.658395718E0
1.530761642E1,9.472751312E0,-3.019071808E0,-8.129594421E-1,9.975405509E0
1.531760142E1,9.638157349E0,-3.270698547E0,-9.175918579E-1,1.021927203E1
1.532758642E1,9.826615448E0,-3.501368866E0,-1.036295013E0,1.048312274E1
1.533757142E1,1.003617966E1,-3.621568909E0,-1.173559570E0,1.073396038E1
1.534755542E1,1.037043457E1,-3.625161438E0,-1.203796692E0,1.105155352E1
1.535754042E1,1.076995377E1,-3.543132019E0,-1.153800659E0,1.139635664E1
1.536752542E1,1.103430405E1,-3.334016876E0,-9.855505371E-1,1.156904681E1
1.537751042E1,1.099269058E1,-3.100951538E0,-8.032296753E-1,1.144990500E1
1.538749542E1,1.086051544E1,-2.994073792E0,-6.864724731E-1,1.128656360E1
1.539748042E1,1.089569229E1,-3.118914185E0,-9.279203796E-1,1.137122563E1
1.540746442E1,1.134266281E1,-3.692671051E0,-1.452729034E0,1.201674835E1
1.541744942E1,1.218690720E1,-4.641098785E0,-2.005080414E0,1.319397030E1
1.542743671E1,1.301648209E1,-5.618117065E0,-2.161056061E0,1.434092774E1
1.543742171E1,1.324954742E1,-6.219865723E0,-1.750759277E0,1.474118023E1
1.544740671E1,1.298160461E1,-6.227050781E0,-1.007105713E0,1.443303439E1
1.545739071E1,1.242625946E1,-5.619613953E0,-2.427951050E-1,1.364004892E1
1.546737571E1,1.177451477E1,-4.570445709E0,4.294569397E-1,1.263774526E1
1.547736071E1,1.100017502E1,-3.432362366E0,6.761439514E-1,1.154305560E1
1.548734571E1,1.003543121E1,-2.823428650E0,6.536906433E-1,1.044552251E1
1.549733071E1,9.521400146E0,-2.917582855E0,4.110452271E-1,9.966860521E0
1.550731471E1,9.308692474E0,-3.391647034E0,1.227447510E-1,9.908082128E0
1.551729971E1,9.098080444E0,-3.897145844E0,-1.514849854E-1,9.898775742E0
1.552728471E1,8.779393158E0,-4.208049316E0,-3.528163147E-1,9.742171351E0
1.553726971E1,8.336464233E0,-4.280947723E0,-4.221221924E-1,9.380902753E0
1.554725471E1,8.089028778E0,-4.221820679E0,-4.722679138E-1,9.136694884E0
1.555723971E1,8.186027069E0,-4.156706085E0,-5.504054260E-1,9.197401306E0
1.556722371E1,8.514444122E0,-4.108057251E0,-5.774990845E-1,9.471293380E0
1.557720871E1,8.813372498E0,-4.036955109E0,-5.423222351E-1,9.709101644E0
1.558719371E1,8.981772308E0,-3.919599152E0,-4.203259277E-1,9.808780005E0
1.559717871E1,9.130113831E0,-3.848946075E0,-3.390449524E-1,9.914046395E0
1.560716371E1,9.189390564E0,-3.765419769E0,-3.580554199E-1,9.937378359E0
1.561714771E1,9.062155151E0,-3.651806030E0,-3.784130859E-1,9.777603987E0
1.562713271E1,8.818761292E0,-3.556154938E0,-4.040098572E-1,9.517353236E0
1.563711771E1,8.656049652E0,-3.489094391E0,-5.185217285E-1,9.347183535E0
1.564710271E1,8.413853302E0,-3.639232178E0,-1.200503540E0,9.245439253E0
1.565708771E1,8.164771271E0,-4.221670990E0,-1.099463654E0,9.257149463E0
1.566707171E1,8.036488037E0,-4.267924805E0,-5.774990845E-1,9.117775348E0
1.567705671E1,8.010292511E0,-4.027225342E0,-6.161187744E-1,8.986819928E0
1.568704171E1,8.030949554E0,-3.951033783E0,-7.346722412E-1,8.980343089E0
1.569702671E1,8.070766754E0,-4.052522736E0,-7.628137207E-1,9.063227973E0
1.570701171E1,7.945776672E0,-4.422553253E0,-7.364685059E-1,9.123416578E0
1.571699671E1,7.307953033E0,-5.174140320E0,-6.444099426E-1,8.977369869E0
1.572698071E1,6.669231262E0,-5.616620178E0,-3.303630066E-1,8.725491824E0
1.573696571E1,6.429579620E0,-5.553002472E0,-3.523672485E-1,8.502910868E0
1.574695071E1,6.429429932E0,-5.229674835E0,-3.204835510E-1,8.293960323E0
1.575693571E1,6.347999268E0,-4.841232605E0,-4.810995483E-1,7.997880007E0
1.576692071E1,6.517746277E0,-4.505929871E0,-8.674461365E-1,7.971002655E0
1.577690471E1,7.048392792E0,-4.249064026E0,-1.184636536E0,8.314911290E0
1.578688971E1,7.212451630E0,-3.937112732E0,-1.487456818E0,8.350619316E0
1.579687471E1,7.452252960E0,-3.533551941E0,-1.662293243E0,8.413398976E0
1.580685971E1,7.932454376E0,-3.177143097E0,-1.559157715E0,8.686140885E0
1.581684471E1,8.174351349E0,-2.879112854E0,-1.455124054E0,8.787872144E0
1.582682871E1,8.265960846E0,-2.606080627E0,-1.534010010E0,8.801758441E0
1.583681371E1,8.497678986E0,-2.345173187E0,-1.535057831E0,8.948004692E0
1.584679871E1,8.923094330E0,-2.168540497E0,-1.300944672E0,9.274515478E0
1.585678371E1,9.528136139E0,-2.176473999E0,-1.169218597E0,9.843245881E0
1.586676871E1,9.924062805E0,-2.273322601E0,-1.162482605E0,1.024726227E1
1.587675371E1,1.019230499E1,-2.353406067E0,-1.068478088E0,1.051490592E1
1.588673771E1,1.037821838E1,-2.386636963E0,-8.755293274E-1,1.068503647E1
1.589672271E1,1.056458084E1,-2.448907471E0,-8.508306885E-1,1.087802505E1
1.590670771E1,1.089239914E1,-2.674039307E0,-1.073717194E0,1.126710761E1
1.591669271E1,1.124880798E1,-3.004552002E0,-1.295705566E0,1.171502739E1
1.592667771E1,1.151061356E1,-3.232078857E0,-1.376387787E0,1.203474144E1
1.593666171E1,1.172826096E1,-3.406615906E0,-1.182241516E0,1.227007873E1
1.594664671E1,1.182510956E1,-3.549119568E0,-9.398954773E-1,1.238195741E1
1.595663171E1,1.186866898E1,-3.737727356E0,-8.183482361E-1,1.247018857E1
1.596661671E1,1.180774567E1,-3.966900787E0,-7.375163269E-1,1.247810442E1
1.597660171E1,1.171868088E1,-4.186943207E0,-6.536906433E-1,1.246135171E1
1.598658671E1,1.158979889E1,-4.332141266E0,-7.544311523E-1,1.239596921E1
1.599657071E1,1.144295425E1,-4.389621735E0,-1.032253418E0,1.229941170E1
1.600655571E1,1.141241776E1,-4.548441467E0,-1.540895691E0,1.238167833E1
1.601654071E1,1.166449356E1,-4.823120270E0,-2.188000031E0,1.281055203E1
1.602652571E1,1.213691116E1,-5.166057129E0,-2.776276703E0,1.347963172E1
1.603651071E1,1.277892609E1,-5.629044342E0,-3.192561035E0,1.432408943E1
1.604649471E1,1.313338898E1,-5.974376221E0,-3.130140839E0,1.476403938E1
1.605647971E1,1.265303787E1,-5.608387299E0,-2.105970612E0,1.399958884E1
1.606646471E1,1.151031418E1,-4.594695282E0,-7.505392456E-1,1.241619372E1
1.607644971E1,1.042252625E1,-3.385060730E0,3.462300110E-1,1.096392105E1
1.608643471E1,8.951535187E0,-2.195634155E0,1.372495880E0,9.318505056E0
1.609641871E1,7.517666931E0,-1.345701599E0,1.848206635E0,7.857613928E0
1.610640371E1,6.736890564E0,-1.196461945E0,1.662592621E0,7.041408231E0
1.611638871E1,6.397995300E0,-1.476379852E0,1.158590698E0,6.667561304E0
1.612637371E1,6.264922028E0,-1.789678345E0,6.520440674E-1,6.548080486E0
1.613635871E1,6.213429108E0,-1.881437531E0,3.595523071E-1,6.501983260E0
1.614634371E1,6.333329773E0,-1.750759277E0,2.290237427E-2,6.570901656E0
1.615632771E1,7.018754425E0,-1.650767212E0,-6.718029785E-1,7.241496068E0
1.616631271E1,8.133935394E0,-1.530267792E0,-1.492396545E0,8.410105348E0
1.617629771E1,9.126371613E0,-1.462458801E0,-2.189646606E0,9.498631313E0
1.618628271E1,9.655670929E0,-1.423090668E0,-2.812351685E0,1.015709063E1
1.619626771E1,9.488917694E0,-1.589394836E0,-3.222199402E0,1.014634436E1
1.620625171E1,8.983418884E0,-2.033820648E0,-3.395089874E0,9.816561340E0
1.621623671E1,8.600664825E0,-2.547103271E0,-3.372636566E0,9.582997857E0
1.622622171E1,8.347391510E0,-3.009342041E0,-3.130739594E0,9.409389722E0
1.623620671E1,8.166717224E0,-3.512296143E0,-2.880010986E0,9.344835884E0
1.624619171E1,8.130193176E0,-3.812422028E0,-2.639311523E0,9.359517515E0
1.625617671E1,7.930957489E0,-3.717070312E0,-2.073787537E0,9.000960679E0
1.626616071E1,7.588320007E0,-3.414399719E0,-1.508413239E0,8.456715466E0
1.627614571E1,7.248077545E0,-3.125500488E0,-1.194665680E0,7.983145213E0
1.628613071E1,7.155719604E0,-2.956950989E0,-1.050964508E0,7.813604073E0
1.629611571E1,7.157815247E0,-2.824027405E0,-9.054670715E-1,7.747859092E0
1.630610071E1,7.232360229E0,-2.630928955E0,-6.979985046E-1,7.727614352E0
1.631608471E1,7.358248444E0,-2.440824280E0,-5.800437927E-1,7.774181251E0
1.632606971E1,7.461234283E0,-2.285447388E0,-5.248086548E-1,7.821042828E0
1.633605471E1,7.444319458E0,-2.055824890E0,-4.827461243E-1,7.738045748E0
1.634603971E1,7.353159027E0,-1.822160797E0,-5.372328186E-1,7.594592599E0
1.635602471E1,7.364685059E0,-1.636995850E0,-7.194039917E-1,7.578646550E0
1.636600871E1,7.468419342E0,-1.497785339E0,-9.466314697E-1,7.675725342E0
1.637599371E1,7.581733704E0,-1.361418915E0,-1.193168793E0,7.794857227E0
1.638597871E1,7.754923553E0,-1.239272919E0,-1.493144989E0,7.994005169E0
1.639596371E1,7.951464844E0,-1.132395172E0,-1.773661652E0,8.225204413E0
1.640594871E1,8.122559052E0,-1.059646454E0,-2.016756134E0,8.436001509E0
1.641593371E1,8.278385010E0,-1.069226532E0,-2.243684235E0,8.643438129E0
1.642591771E1,8.450077972E0,-1.159937897E0,-2.431992645E0,8.869265014E0
1.643590067E1,8.522976379E0,-1.309177551E0,-2.486928406E0,8.974401658E0
1.644588567E1,8.568332062E0,-1.439556427E0,-2.446213074E0,9.026217116E0
1.645587067E1,8.607251129E0,-1.524729309E0,-2.378553772E0,9.059088779E0
1.646585567E1,8.684191132E0,-1.555116119E0,-2.288890228E0,9.114416066E0
1.647583967E1,8.829239502E0,-1.581311646E0,-2.185006256E0,9.232024103E0
1.648582467E1,8.982071686E0,-1.600621490E0,-2.075284424E0,9.356623663E0
1.649580967E1,9.144783325E0,-1.619781647E0,-1.984423370E0,9.496772650E0
1.650579467E1,9.400900726E0,-1.743723907E0,-2.050136719E0,9.778576998E0
1.651577967E1,9.687255249E0,-1.952988739E0,-2.111958160E0,1.010531774E1
1.652576467E1,9.955946503E0,-2.157613220E0,-2.171234894E0,1.041587378E1
