"Time (s)","Acceleration x (m/s^2)","Acceleration y (m/s^2)","Acceleration z (m/s^2)","Absolute acceleration (m/s^2)"
-1.259750003E-3,-1.014290771E0,3.388503571E0,7.626041565E0,8.406381633E0
8.725249994E-3,-6.851252747E-1,3.540437622E0,6.494245148E0,7.428278080E0
1.871125000E-2,-7.699987793E-1,3.665128326E0,6.388714600E0,7.405520779E0
2.869625000E-2,-1.297801208E0,3.856580200E0,7.458839264E0,8.496574721E0
3.868225000E-2,-1.689386902E0,4.027524719E0,8.770112457E0,9.797441298E0
4.866725000E-2,-1.794019318E0,4.079616394E0,9.758806458E0,1.072828405E1
5.865324999E-2,-1.786534882E0,4.028871918E0,1.046668442E1,1.135671601E1
6.863825000E-2,-1.675316162E0,3.990102539E0,1.058493851E1,1.143540667E1
7.862325000E-2,-1.433419189E0,4.000880127E0,9.944869537E0,1.081490464E1
8.860925000E-2,-1.182840271E0,4.124223633E0,8.944050751E0,9.919897959E0
9.859425000E-2,-1.080004120E0,4.296665039E0,8.108937378E0,9.240270816E0
1.085802500E-1,-1.223106537E0,4.430935822E0,7.694000244E0,8.962523172E0
1.185652500E-1,-1.493743744E0,4.696184235E0,7.814050598E0,9.238225127E0
1.285512500E-1,-1.522633667E0,4.989125061E0,8.279133453E0,9.785388745E0
1.385362500E-1,-1.465003510E0,5.041965179E0,8.664282532E0,1.013101377E1
1.485222500E-1,-1.282682648E0,4.897964630E0,8.866212616E0,1.021004694E1
1.585072500E-1,-1.255888367E0,4.729115753E0,8.943152618E0,1.019420277E1
1.684932500E-1,-1.485361176E0,4.653522949E0,9.032217407E0,1.026852107E1
1.784782500E-1,-1.576222229E0,4.663103027E0,9.145531769E0,1.038603667E1
1.884632500E-1,-1.587448883E0,4.646637268E0,9.199270020E0,1.042774188E1
1.984492500E-1,-1.722767487E0,4.626429291E0,9.430090027E0,1.064417088E1
2.084342500E-1,-1.559307404E0,4.672234039E0,9.549242249E0,1.074473071E1
2.184202500E-1,-1.146765289E0,4.691543884E0,9.267827454E0,1.045075501E1
2.284052500E-1,-8.586145020E-1,4.777914276E0,8.881929932E0,1.012197426E1
2.383912500E-1,-5.950126648E-1,4.780009918E0,8.157137146E0,9.473194884E0
2.483762500E-1,-9.442364502E-1,4.504882050E0,7.445966034E0,8.753739483E0
2.583622500E-1,-1.139280853E0,4.083807678E0,7.809709625E0,8.886338416E0
2.683472500E-1,-8.113128662E-1,3.941753082E0,8.067772980E0,9.015797623E0
2.783332500E-1,-6.174659729E-1,3.901636505E0,8.453371124E0,9.330783194E0
2.883182500E-1,-8.098159790E-2,4.182901611E0,8.805888062E0,9.749199375E0
2.983032500E-1,1.021775208E0,4.495601349E0,9.134155426E0,1.023167882E1
3.082892500E-1,2.222278748E0,4.415817261E0,9.214089203E0,1.045645278E1
3.182742500E-1,2.828667755E0,4.138593750E0,9.030570831E0,1.032862668E1
3.282602500E-1,3.065325623E0,4.040547638E0,8.703650665E0,1.007351881E1
3.382452500E-1,3.046315155E0,4.186943207E0,7.769293671E0,9.336618959E0
3.482312500E-1,2.833308105E0,4.247267761E0,7.160659332E0,8.794427800E0
3.582162500E-1,2.582429810E0,4.257446594E0,6.907984772E0,8.515576835E0
3.682022500E-1,2.260149994E0,4.159849548E0,6.739135895E0,8.235810760E0
3.781872500E-1,1.490749969E0,3.552712097E0,6.319708099E0,7.401541000E0
3.881732500E-1,-1.400637360E0,2.178719330E0,5.212011566E0,5.820108890E0
3.981582500E-1,-2.320773926E0,1.337169342E0,5.997877350E0,6.568755298E0
4.081432500E-1,-1.895358582E0,1.235530701E0,6.569239197E0,6.947936664E0
4.181292500E-1,1.115779724E0,2.121388550E0,6.462960205E0,6.893120366E0
4.281142500E-1,3.141068115E0,2.661315765E0,7.584577789E0,8.629874318E0
4.381002500E-1,2.934946747E0,2.913092194E0,8.297096100E0,9.270481229E0
4.480852500E-1,1.348695374E0,3.449726257E0,8.826545105E0,9.572224869E0
4.580712500E-1,9.204359436E-1,3.059787140E0,9.138197021E0,9.680709916E0
4.680562500E-1,1.663939819E0,2.938539276E0,9.028175812E0,9.639069835E0
4.780422500E-1,2.008373566E0,2.528092804E0,9.397906952E0,9.937075660E0
4.880272500E-1,2.011217651E0,2.310894470E0,9.545050964E0,1.002463105E1
4.980132500E-1,2.169139252E0,2.368973694E0,1.020592667E1,1.069944581E1
5.079982500E-1,2.941083984E0,2.193388824E0,1.081875229E1,1.142393674E1
5.179832500E-1,3.588637390E0,1.884281616E0,1.127635071E1,1.198269255E1
5.279692500E-1,3.286715240E0,1.360820160E0,1.146765289E1,1.200672276E1
5.379542500E-1,2.755619659E0,9.443861389E-1,1.146196472E1,1.182632403E1
5.479402500E-1,2.485431519E0,8.568182373E-1,1.117336487E1,1.147848378E1
5.579252500E-1,1.917961578E0,8.696914673E-1,1.059317139E1,1.080047313E1
5.679112500E-1,1.251397705E0,8.792715454E-1,9.818532257E0,9.936935662E0
5.778962500E-1,6.578819275E-1,9.503736877E-1,8.762478333E0,8.838384768E0
5.878822500E-1,6.770420837E-1,1.271006927E0,8.322842560E0,8.446511284E0
5.978672500E-1,1.225202179E0,1.728455658E0,8.328231354E0,8.593492702E0
6.078532500E-1,2.146985321E0,1.536105652E0,8.455317078E0,8.857852642E0
6.178382500E-1,2.783012695E0,8.153544617E-1,9.539811859E0,9.970856175E0
6.278232500E-1,2.661166077E0,6.348298645E-1,1.036474640E1,1.071973795E1
6.378092500E-1,2.628084869E0,6.177653503E-1,1.057311310E1,1.091234094E1
6.477942500E-1,2.383044434E0,4.093986511E-1,1.045036835E1,1.072644893E1
6.577802500E-1,1.951940918E0,2.727328491E-1,1.004590942E1,1.023741924E1
6.677652500E-1,1.820963287E0,3.037184143E-1,9.475445709E0,9.653611944E0
6.777512500E-1,1.611548767E0,5.923182678E-1,8.752598877E0,8.919412394E0
6.877362500E-1,1.118773499E0,7.111711121E-1,8.036188660E0,8.144798749E0
6.977222500E-1,1.088237000E0,5.448669434E-1,7.053033142E0,7.157263182E0
7.077072500E-1,4.812492371E-1,3.995191956E-1,6.509513397E0,6.539493947E0
7.176932500E-1,9.430389404E-3,2.960842896E-1,6.223308563E0,6.230355071E0
7.276777917E-1,1.043330383E-1,3.640429688E-1,6.220165100E0,6.231682481E0
7.376627917E-1,2.683918762E-1,4.117936707E-1,6.604266357E0,6.622532925E0
7.476487917E-1,8.295748901E-1,4.686753845E-1,7.246430969E0,7.308803794E0
7.576337917E-1,1.196312256E0,4.679269409E-1,7.827223206E0,7.931931779E0
7.676197917E-1,1.269060974E0,3.540138245E-1,8.108188934E0,8.214534031E0
7.776047917E-1,1.238374786E0,3.171903992E-1,8.046666870E0,8.147578142E0
7.875907917E-1,9.792636108E-1,2.061213684E-1,7.816146240E0,7.879948305E0
7.975757917E-1,6.966513062E-1,7.918533325E-2,7.682773590E0,7.714700474E0
8.075617917E-1,4.637356567E-1,2.380050659E-2,7.504045258E0,7.518398264E0
8.175467917E-1,2.176473999E-1,-1.496887207E-2,7.298073578E0,7.301333605E0
8.275327917E-1,3.037184143E-1,-4.939727783E-3,7.109316101E0,7.115802464E0
8.375177917E-1,6.556365967E-1,2.655477905E-1,6.844217377E0,6.880674856E0
8.475027917E-1,2.306703186E-1,5.990542603E-1,6.484814758E0,6.516509591E0
8.574887917E-1,3.146456909E-1,6.373745728E-1,6.380481720E0,6.419952900E0
8.674737917E-1,3.755690002E-1,4.640350342E-1,6.477030945E0,6.504483872E0
8.774597917E-1,3.547622681E-2,2.255809021E-1,6.440806274E0,6.444853045E0
8.874447917E-1,3.655398560E-1,-4.580474854E-2,6.161636810E0,6.172640087E0
8.974307917E-1,3.993695068E-1,-2.013313293E-1,5.876629486E0,5.893624048E0
9.074157917E-1,3.712280273E-1,8.891510010E-2,5.923032990E0,5.935321048E0
9.174017917E-1,1.763183441E0,3.432362366E-1,6.323749695E0,6.573920989E0
9.273867917E-1,2.903661804E0,1.053808594E-1,6.787934418E0,7.383658352E0
9.373727917E-1,4.226910095E0,7.005432129E-2,7.707771606E0,8.790985138E0
9.473577917E-1,5.063819733E0,-1.722917175E-1,9.021739197E0,1.034716062E1
9.573437917E-1,7.066205750E0,-8.246351624E-1,1.113714020E1,1.321541443E1
9.673287917E-1,9.092541962E0,-1.756447449E0,1.490001526E1,1.754337145E1
9.773137917E-1,1.156210648E1,-2.893183594E0,1.977133530E1,2.308589433E1
9.872997917E-1,1.501856873E1,-3.466790771E0,2.530637512E1,2.963087354E1
9.972847917E-1,1.633313507E1,-3.608545990E0,2.956546829E1,3.396924816E1
1.007270792E0,1.555595123E1,-4.270619202E0,3.133448959E1,3.524309926E1
1.017255792E0,1.513697250E1,-4.872218170E0,3.104334503E1,3.487915878E1
1.027241792E0,1.441816727E1,-4.905000000E0,2.876328644E1,3.254641638E1
1.037226792E0,1.328607147E1,-4.363575897E0,2.513318527E1,2.876173659E1
1.047212792E0,7.751181335E0,-1.749412079E0,2.088965973E1,2.234992479E1
1.057197792E0,6.214027863E0,1.181044006E-1,1.870959320E1,1.971489205E1
1.067183792E0,7.308701477E0,2.345622253E-1,1.811188614E1,1.953234641E1
1.077168792E0,7.458839264E0,-1.055305481E0,1.891795990E1,2.036264127E1
1.087153792E0,6.707401886E0,-2.858455811E0,1.936103851E1,2.068839825E1
1.097139792E0,4.065545654E0,-4.207300873E0,1.874926071E1,1.964089660E1
1.107124792E0,2.159559174E0,-3.802692261E0,1.756567200E1,1.810185065E1
1.117110792E0,7.767347717E-1,-1.888921967E0,1.631921402E1,1.644652210E1
1.127095792E0,8.611592102E-1,-7.855664063E-1,1.424288177E1,1.429050003E1
1.137081792E0,1.554068298E0,2.487826538E-1,1.101589233E1,1.112775382E1
1.147066792E0,3.775598602E0,4.254452820E0,5.627098389E0,8.001234272E0
1.157052792E0,6.744075623E0,5.104684753E0,1.573677521E0,8.603303050E0
1.167037792E0,7.212152252E0,6.906637573E0,-1.634600830E-1,9.987166859E0
1.177023792E0,7.041357422E0,1.037253021E1,-3.931574249E0,1.313877367E1
1.187008792E0,9.901908875E0,1.543215866E1,-9.568552094E0,2.068227525E1
1.196993792E0,1.319057007E1,1.796698746E1,-9.035510559E0,2.405086751E1
1.206979792E0,1.105376358E1,1.778915726E1,-4.172124023E0,2.135524348E1
1.216964792E0,5.370681610E0,7.596702576E0,-4.942871246E0,1.053499346E1
1.226950792E0,2.656974792E0,-2.360441437E0,-7.933352509E0,8.693059349E0
1.236935792E0,-7.934999084E-1,-5.495072937E0,-8.006400604E0,9.743095982E0
1.246921792E0,-4.198020172E0,-4.373305664E0,-4.775818634E0,7.717358319E0
1.256906792E0,-6.528224487E0,-1.656006317E0,3.586541748E-1,6.744531466E0
1.266892792E0,-6.971003723E0,8.024812317E-1,8.686436462E0,1.116660411E1
1.276877792E0,-1.894161072E0,6.749464417E-1,1.476679230E1,1.490307195E1
1.286863792E0,1.977837067E0,-1.511556702E0,1.590278000E1,1.609642988E1
1.296848792E0,1.929637299E0,-1.445993042E0,1.460003906E1,1.479782202E1
1.306833792E0,7.897576904E-1,-1.880090332E-1,1.034199371E1,1.037380830E1
1.316819792E0,-1.912872162E0,-1.165775757E0,6.042484589E0,6.444356681E0
1.326804792E0,-4.984484711E0,-3.118016052E0,4.584965515E0,7.455804498E0
1.336790792E0,-6.477330322E0,-3.322490845E0,5.244494019E0,8.972149744E0
1.346775792E0,-5.739514618E0,-2.730921021E0,5.347180481E0,8.306160170E0
1.356761792E0,-4.512516174E0,-2.348915405E0,5.018613739E0,7.146096114E0
1.366746792E0,-2.761158142E0,-1.694326630E0,4.297862549E0,5.382040459E0
1.376732792E0,-1.115779724E0,-3.728746033E-1,3.168461151E0,3.379814481E0
1.386717792E0,-4.035607910E-1,9.765692139E-1,2.386187897E0,2.609682245E0
1.396703792E0,3.782633972E-1,1.643582153E0,1.708397369E0,2.400638887E0
1.406688792E0,1.222358093E0,1.493594055E0,1.146765289E0,2.245006267E0
1.416673792E0,1.535806274E0,1.194665680E0,1.606309662E0,2.523124596E0
1.426659792E0,1.020577698E0,2.737806702E-1,3.038381653E0,3.216877020E0
1.436644792E0,6.243516541E-1,-3.209326172E-1,3.372935944E0,3.445215467E0
1.446630792E0,3.351530457E-1,-3.948788452E-1,3.041674805E0,3.085456609E0
1.456615792E0,1.047821045E-1,-2.133064270E-1,2.051034851E0,2.064757342E0
1.466601792E0,6.965016174E-1,-2.046244812E-1,8.455915833E-1,1.114455386E0
1.476586792E0,8.087681580E-1,-5.343887329E-2,-3.240760803E-1,8.729186402E-1
1.486572792E0,1.481918335E-1,-8.532257080E-3,-1.334774323E0,1.343002647E0
1.496557792E0,-7.403604126E-1,5.493576050E-2,-2.781815186E0,2.879174744E0
1.506543792E0,-6.677613831E-1,1.838177490E-1,-4.498744812E0,4.551746820E0
1.516528792E0,7.858657837E-2,3.849993896E-1,-5.856720886E0,5.869887556E0
1.526513792E0,7.342231750E-1,2.421963501E-1,-7.102280731E0,7.144237841E0
1.536499792E0,2.152972870E0,-6.432124329E-1,-6.448590088E0,6.828859973E0
1.546484792E0,6.175258484E0,-2.282154236E0,-3.659589844E0,7.532240246E0
1.556470792E0,1.188872726E1,-3.201093292E0,2.158062286E0,1.249984268E1
1.566455792E0,1.711421082E1,-1.986219635E0,9.108708344E0,1.948871078E1
1.576441792E0,2.380799103E1,-1.423539734E-1,1.500240234E1,2.814094486E1
1.586426792E0,3.120201508E1,2.734812927E-1,1.950069809E1,3.679562152E1
1.596412792E0,3.600792114E1,3.971241760E-1,2.220602234E1,4.230644774E1
1.606397792E0,3.736350220E1,1.687740326E0,2.290611649E1,4.385852182E1
1.616383792E0,3.531291641E1,3.703748016E0,2.178854050E1,4.165885634E1
1.626368792E0,3.298435867E1,5.008135529E0,1.898861298E1,3.838771628E1
1.636354792E0,3.082420074E1,5.699996796E0,1.650318146E1,3.542564485E1
1.704085667E0,-4.801265717E0,2.996319122E0,6.554420013E0,8.659705681E0
1.714071667E0,-4.878954163E0,3.066822510E0,6.600673828E0,8.762333537E0
1.724056667E0,-4.982987823E0,3.377127228E0,7.074887695E0,9.289197590E0
1.734042667E0,-4.736749878E0,3.647764435E0,7.835306396E0,9.855709569E0
1.744027667E0,-4.444707184E0,3.719465332E0,8.784482574E0,1.052411414E1
1.754013667E0,-4.120032349E0,3.520678711E0,9.620494080E0,1.104190887E1
1.763998667E0,-3.804039459E0,3.154839478E0,9.981543274E0,1.113799508E1
1.773984667E0,-3.664230194E0,2.978356476E0,9.886191559E0,1.095600172E1
1.783969667E0,-3.806584167E0,3.095712433E0,9.532626801E0,1.072121692E1
1.793955667E0,-3.953279114E0,3.301833801E0,8.981323242E0,1.035348682E1
1.803940667E0,-4.057163086E0,3.508404236E0,8.476273499E0,1.003078686E1
1.813926667E0,-4.115092621E0,3.534150696E0,8.058342590E0,9.713963852E0
1.823911667E0,-4.132606201E0,3.443139954E0,7.779771881E0,9.458250223E0
1.833897667E0,-4.192930756E0,3.454067230E0,7.688162384E0,9.413771274E0
1.843883667E0,-4.162543945E0,3.432811432E0,7.698640594E0,9.401065547E0
1.853868667E0,-4.083358612E0,3.359763336E0,7.777526550E0,9.404878865E0
1.863854667E0,-4.074227600E0,3.358715515E0,7.952362976E0,9.545699417E0
1.873839667E0,-4.065845032E0,3.392694855E0,8.157137146E0,9.725243473E0
1.883825667E0,-4.098926239E0,3.427272949E0,8.345445557E0,9.909281393E0
1.893810667E0,-4.074826355E0,3.438798981E0,8.403075714E0,9.951946026E0
1.903796667E0,-4.044439545E0,3.476370850E0,8.318950653E0,9.881679285E0
1.913781667E0,-4.063300323E0,3.480113068E0,8.177045746E0,9.771677114E0
1.923767667E0,-4.092489624E0,3.429817657E0,8.031697998E0,9.644702858E0
1.933752667E0,-4.118535461E0,3.299438782E0,7.910150757E0,9.508896656E0
1.943738667E0,-4.121828613E0,3.263962555E0,7.856412506E0,9.453366604E0
1.953723667E0,-4.113745422E0,3.364104309E0,7.889793091E0,9.512567173E0
1.963709667E0,-4.081412659E0,3.488645325E0,8.080346832E0,9.701576182E0
1.973694667E0,-4.051923981E0,3.485651550E0,8.420140228E0,9.973295150E0
1.983680667E0,-3.973786469E0,3.396137695E0,8.662336578E0,1.011735169E1
1.993665667E0,-3.965852966E0,3.350931702E0,8.693022766E0,1.012548161E1
2.003651667E0,-3.979324951E0,3.376977539E0,8.493188324E0,9.968613358E0
2.013636667E0,-4.124523010E0,3.466192017E0,8.214617615E0,9.823752833E0
2.023622667E0,-4.233945465E0,3.582350464E0,7.997269592E0,9.732206840E0
2.033607667E0,-4.213438110E0,3.647465057E0,7.884553986E0,9.655218983E0
2.043593667E0,-4.182751923E0,3.636238403E0,7.772586823E0,9.546242679E0
2.053579667E0,-4.206253052E0,3.560196533E0,7.644453278E0,9.423652689E0
2.063564667E0,-4.310436401E0,3.545377350E0,7.577243042E0,9.410854087E0
2.073550667E0,-4.341571655E0,3.521876221E0,7.665409698E0,9.487431813E0
2.083535667E0,-4.228556671E0,3.471131744E0,7.946974182E0,9.647996982E0
2.093521667E0,-4.175716553E0,3.464096375E0,8.299640808E0,9.915674963E0
2.103506667E0,-4.179309082E0,3.521427155E0,8.524922333E0,1.012627149E1
2.113492667E0,-4.169729004E0,3.567680969E0,8.518186340E0,1.013284195E1
2.123477667E0,-4.090393982E0,3.496878204E0,8.308173065E0,9.898748395E0
2.133463667E0,-4.074676666E0,3.464096375E0,8.064629517E0,9.676838475E0
2.143449667E0,-4.248764648E0,3.517684937E0,7.892487488E0,9.628990970E0
2.153434667E0,-4.391717377E0,3.505111084E0,7.838749237E0,9.644634510E0
2.163420667E0,-4.403692474E0,3.392395477E0,7.942932587E0,9.694897243E0
2.173405667E0,-4.408781891E0,3.316952362E0,8.156388702E0,9.847142093E0
2.183391667E0,-4.420457611E0,3.361858978E0,8.258626099E0,9.952258353E0
2.193376667E0,-4.372108154E0,3.450474701E0,8.259075165E0,9.961597661E0
2.203362667E0,-4.286635895E0,3.464096375E0,8.156538391E0,9.843999670E0
2.213347667E0,-4.214336243E0,3.373983765E0,8.014783173E0,9.663392040E0
2.223333667E0,-4.227658539E0,3.308420105E0,7.900271301E0,9.551598136E0
2.233318667E0,-4.276457062E0,3.256029053E0,7.741750946E0,9.424676011E0
2.243304667E0,-4.382137299E0,3.237467651E0,7.591912537E0,9.344595233E0
2.253289667E0,-4.441264343E0,3.293750610E0,7.468419342E0,9.292519008E0
2.263275667E0,-4.446653137E0,3.330424347E0,7.356601868E0,9.218678945E0
2.273260667E0,-4.385131073E0,3.246598663E0,7.276069336E0,9.094556745E0
2.283246667E0,-4.192182312E0,3.104993134E0,7.373516693E0,9.032393001E0
2.293231667E0,-4.010460205E0,3.016826477E0,7.805668030E0,9.279735257E0
2.303217667E0,-4.082610168E0,3.057242432E0,8.436456299E0,9.858409200E0
2.313203667E0,-3.924089813E0,3.216810608E0,8.847501526E0,1.019924677E1
2.323188667E0,-3.672612762E0,3.275039520E0,8.953630829E0,1.021672518E1
2.333175083E0,-3.610641632E0,3.224744110E0,8.753347321E0,1.000283944E1
2.343160083E0,-3.572620697E0,2.946472778E0,8.270900574E0,9.479088394E0
2.353146083E0,-3.542533264E0,2.657124481E0,7.813900909E0,8.981475372E0
2.363131083E0,-3.697012024E0,2.553988953E0,7.519463196E0,8.759742247E0
2.373117083E0,-3.724854126E0,2.446662140E0,7.178172913E0,8.449074520E0
2.383102083E0,-3.675157471E0,2.440375214E0,6.960974579E0,8.241200198E0
2.393088083E0,-3.431314545E0,2.594704285E0,6.988517303E0,8.206447705E0
2.403073083E0,-2.945724335E0,2.699785767E0,6.828200684E0,7.911413250E0
2.413059083E0,-2.334096222E0,2.764600983E0,6.296057281E0,7.261636252E0
2.423044083E0,-1.827848969E0,2.922522583E0,5.917494507E0,6.848277983E0
2.433030083E0,-1.806144104E0,3.135679321E0,6.021977234E0,7.025585466E0
2.443015083E0,-1.960473175E0,3.318598938E0,6.306535492E0,7.391139553E0
2.453001083E0,-2.127076721E0,3.331621857E0,6.577472076E0,7.673805998E0
2.462986083E0,-2.089804230E0,3.071762238E0,7.156617737E0,8.063509310E0
2.472972083E0,-1.450932770E0,2.544558563E0,7.384443970E0,7.944180066E0
2.482957083E0,-1.190025330E0,1.955982513E0,7.580685883E0,7.918890473E0
2.492943083E0,-8.687933350E-1,1.516346741E0,7.299420776E0,7.505708026E0
2.502929083E0,-8.586145020E-1,1.400188293E0,6.918762360E0,7.111049058E0
2.512914083E0,-1.338067474E0,1.540296936E0,6.563551025E0,6.873364626E0
2.522900083E0,-1.453776855E0,1.819316711E0,5.955365753E0,6.394510278E0
2.532885083E0,-9.862989807E-1,2.068099365E0,5.297334137E0,5.771617591E0
2.542871083E0,-5.824388123E-1,2.102677460E0,4.892426147E0,5.356894723E0
2.552856083E0,-3.216810608E-1,1.986668701E0,4.681514740E0,5.095773886E0
2.562842083E0,-4.099974060E-1,1.545835419E0,4.613256683E0,4.882606091E0
2.572827083E0,-9.309141541E-1,8.635542297E-1,4.717140656E0,4.885053023E0
2.582813083E0,-1.662592621E0,-9.265731812E-2,5.170248413E0,5.431783156E0
2.592798083E0,-2.014510803E0,-1.050964508E0,6.342909851E0,6.737602359E0
2.602784083E0,-1.578617249E0,-1.513951721E0,8.226443024E0,8.512252760E0
2.612769083E0,-9.455836487E-1,-1.908980255E0,1.247460892E1,1.265520453E1
2.622755083E0,-1.144519958E0,-1.916464691E0,1.726494736E1,1.740865216E1
2.632740083E0,-1.954036560E0,-1.876797180E0,2.116119507E1,2.133393548E1
2.642726083E0,-2.754422150E0,-1.985620880E0,2.464654724E1,2.487934530E1
2.652711083E0,-3.325334930E0,-1.505868530E0,2.614897293E1,2.640254302E1
2.662697083E0,-2.511327667E0,-1.594035187E0,2.615226608E1,2.632088023E1
2.672682083E0,1.838177490E-1,-3.605252838E0,2.396142197E1,2.423182576E1
2.682668083E0,2.950514374E0,-6.186784515E0,2.010409332E1,2.124044270E1
2.692654083E0,2.849025421E0,-9.007967834E0,1.629047379E1,1.883188696E1
2.702639083E0,1.957180023E0,-7.548502808E0,1.585098770E1,1.766534062E1
2.712625083E0,7.833210754E-1,-6.368806000E0,1.766895721E1,1.879806721E1
2.722610083E0,6.810836792E-2,-6.992858276E0,2.059896423E1,2.175366712E1
2.732596083E0,6.259982300E-1,-6.809040527E0,2.122496246E1,2.229919143E1
2.742581083E0,2.290686493E0,-3.489693146E0,2.004616379E1,2.047617849E1
2.752567083E0,1.754052429E0,9.334588623E-1,1.911195648E1,1.921496620E1
2.762552083E0,1.741478577E0,1.297801208E0,1.628777939E1,1.643194429E1
2.772538083E0,2.161355438E0,1.477277985E0,1.390877655E1,1.415301638E1
2.782523083E0,1.804497528E0,1.756297760E0,1.210712311E1,1.236621297E1
2.792509083E0,2.335742798E0,1.910776520E0,1.060260178E1,1.102369837E1
2.802494083E0,3.040477295E0,2.551743622E0,9.136550446E0,9.961548662E0
2.812480083E0,2.707419891E0,3.613186340E0,7.451654205E0,8.712771568E0
2.822465083E0,2.549498291E0,3.741918640E0,6.581663361E0,7.988753923E0
2.832451083E0,3.317700806E0,2.034569092E0,6.661297760E0,7.714888066E0
2.842436083E0,3.358565826E0,1.001267853E0,7.528743896E0,8.304485919E0
2.852422083E0,2.421215057E0,1.416803741E0,8.902437286E0,9.333970475E0
2.862407083E0,2.374212799E0,1.848206635E0,9.149423676E0,9.631443701E0
2.872393083E0,3.137625275E0,1.895358582E0,8.562643890E0,9.314287246E0
2.882379083E0,3.220103760E0,2.117197266E0,7.124135284E0,8.099684934E0
2.892364083E0,3.033741302E0,2.040856018E0,4.843627625E0,6.068723765E0
2.902350083E0,2.459385681E0,2.210902405E0,2.903661804E0,4.400899822E0
2.912335083E0,1.409468994E0,2.535876617E0,1.934127960E0,3.486850159E0
2.922321083E0,8.972341919E-1,2.292033691E0,1.313518524E0,2.789942392E0
2.932306083E0,5.542973328E-1,1.936822357E0,1.058299255E0,2.275636986E0
2.942292083E0,3.128494263E-1,1.748963013E0,1.480122070E0,2.312467887E0
2.952277083E0,2.037263489E-1,1.664987640E0,2.074835358E0,2.668076091E0
2.962263083E0,1.230441284E-1,1.421294403E0,2.157613220E0,2.586602491E0
2.972248083E0,4.026626587E-2,1.311123505E0,1.848655701E0,2.266758504E0
2.982234083E0,1.014889526E-1,1.410816193E0,1.667232971E0,2.186405296E0
2.992219083E0,-3.607498169E-2,1.658251648E0,1.909728699E0,2.529459159E0
3.002205083E0,-4.427792358E-1,1.582509155E0,2.150128784E0,2.706185963E0
3.012190083E0,-3.001258850E-1,1.197809143E0,2.293530579E0,2.604823373E0
3.022176083E0,1.338217163E-1,9.857002258E-1,2.407593384E0,2.604998865E0
3.032161083E0,4.108955383E-1,1.041534119E0,2.343526611E0,2.597257292E0
3.042147083E0,6.822811890E-1,9.857002258E-1,1.963466949E0,2.300503210E0
3.052132083E0,8.815168762E-1,9.298663330E-1,1.697470093E0,2.126764706E0
3.062118083E0,1.042432251E0,9.342073059E-1,1.571581879E0,2.104584968E0
3.072104083E0,1.031804352E0,8.440946960E-1,1.504671021E0,2.010261415E0
3.082089083E0,4.622387695E-1,5.008584595E-1,1.466051331E0,1.616734480E0
3.092075083E0,6.607260132E-1,1.310824127E0,1.830842743E0,2.346658029E0
3.102060083E0,9.084608459E-1,1.643432465E0,3.014581146E0,3.551601169E0
3.112046083E0,1.275048523E0,1.655557251E0,4.073928223E0,4.578592547E0
3.122031083E0,1.661694489E0,2.141596527E0,5.087320862E0,5.764416519E0
3.132017083E0,9.515711975E-1,3.128344574E0,5.923482056E0,6.766067335E0
3.142002083E0,-8.993298340E-1,4.120481415E0,5.727539520E0,7.112796229E0
3.151988083E0,-1.823657684E0,4.261937256E0,5.257067871E0,7.009036961E0
3.161973083E0,-1.546733551E0,3.942501526E0,6.606960754E0,7.847778881E0
3.171959083E0,-1.685794373E0,5.152884521E0,9.160650330E0,1.064479385E1
3.181944083E0,-8.042774963E-1,7.016808472E0,1.251113297E1,1.436700774E1
3.191930083E0,1.838626556E0,7.806865540E0,1.665077454E1,1.848177453E1
3.201915083E0,4.302203522E0,7.103478241E0,2.064132614E1,2.224933040E1
3.211901083E0,5.626499634E0,5.798941040E0,2.269984543E1,2.409498283E1
3.221886083E0,6.095025330E0,4.572990417E0,2.210468307E1,2.338115885E1
3.231872083E0,5.723946991E0,4.296665039E0,2.077170502E1,2.197017590E1
3.241858083E0,5.297334137E0,4.607718201E0,2.135414383E1,2.247870714E1
3.251843083E0,4.949307861E0,4.052223358E0,2.272813660E1,2.361110662E1
3.261829083E0,3.889511719E0,3.456312561E0,2.307765976E1,2.365698159E1
3.271814083E0,2.248025208E0,3.277284851E0,2.190395050E1,2.226156465E1
3.281800083E0,6.403683472E-1,3.434907074E0,1.936163727E1,1.967439087E1
3.291785083E0,-3.722758484E-1,3.721560974E0,1.625260254E1,1.667740072E1
3.301771083E0,-7.512876892E-1,4.172573090E0,1.361823074E1,1.426292424E1
3.311756083E0,-6.990463257E-1,4.858297119E0,1.203078186E1,1.299351488E1
3.321742083E0,7.574249268E-2,4.699477386E0,1.049392776E1,1.149840618E1
3.331727167E0,1.484912109E-1,4.625082092E0,9.337881775E0,1.042158673E1
3.341713167E0,-2.297721863E-1,4.510270844E0,8.695417786E0,9.798246211E0
3.351698167E0,-5.992039490E-1,3.856131134E0,8.236023102E0,9.113773600E0
3.361684167E0,-1.186283112E0,3.279829559E0,7.432194672E0,8.209876199E0
3.371669167E0,-1.371897125E0,3.192261658E0,6.382128296E0,7.266649696E0
3.381655167E0,-1.092278595E0,3.452121277E0,5.539530487E0,6.617900865E0
3.391640167E0,-8.521778870E-1,3.710184631E0,5.038222961E0,6.314694590E0
3.401626167E0,-6.018983459E-1,3.628155212E0,4.850363617E0,6.087020542E0
3.411611167E0,-3.924838257E-1,3.593128052E0,5.122497711E0,6.269337728E0
3.421597167E0,-3.153941345E-1,3.702400818E0,5.458848267E0,6.603504348E0
3.431583167E0,-3.664379883E-1,3.810925140E0,5.431754608E0,6.645403325E0
3.441568167E0,-6.691085815E-1,3.947291565E0,5.160069580E0,6.531089883E0
3.451554167E0,-1.013542328E0,3.877237244E0,4.490661621E0,6.018827003E0
3.461539167E0,-1.632954254E0,4.209995270E0,3.804189148E0,5.904443652E0
3.471525167E0,-1.927092590E0,4.437222748E0,3.325334930E0,5.870305270E0
3.481510167E0,-1.826651459E0,4.489913177E0,3.373983765E0,5.905907410E0
3.491496167E0,-2.158661041E0,5.429359589E0,4.345463562E0,7.281539439E0
3.501481167E0,-1.342857513E0,5.461243286E0,5.921236725E0,8.166363259E0
3.511467167E0,2.399510193E-1,4.655468903E0,8.040529633E0,9.294142455E0
3.521452167E0,1.127754822E0,4.134103088E0,1.044168640E1,1.128678228E1
3.531438167E0,1.486109619E0,3.476969604E0,1.259046799E1,1.314601550E1
3.541423167E0,1.065634003E0,3.103346558E0,1.410217438E1,1.447886936E1
3.551409167E0,1.021176453E0,2.308200073E0,1.472742416E1,1.494214213E1
3.561394167E0,1.081950073E0,1.479074249E0,1.490181152E1,1.501406884E1
3.571380167E0,7.273374939E-1,1.488654327E0,1.460288315E1,1.469657470E1
3.581365167E0,1.071771240E-1,1.983375549E0,1.306348434E1,1.321362512E1
3.591351167E0,-2.923420715E-1,2.274071045E0,1.114387619E1,1.137729491E1
3.601336167E0,-7.545808411E-1,2.744991760E0,9.192384338E0,9.623112897E0
3.611322167E0,-1.265618134E0,3.427123260E0,7.597900085E0,8.430601925E0
3.621308167E0,-1.137185211E0,3.918401642E0,6.523584137E0,7.694427310E0
3.631293167E0,-9.334588623E-1,4.229454803E0,5.568270721E0,7.054450525E0
3.641279167E0,-8.481362915E-1,4.489763489E0,4.956642609E0,6.741336463E0
3.651264167E0,-6.905140686E-1,4.631818085E0,4.841232605E0,6.735583240E0
3.661250167E0,-6.483018494E-1,4.736600189E0,4.872816925E0,6.826420836E0
3.671235167E0,-1.854643250E-1,5.389093323E0,5.408253479E0,7.637141452E0
3.681221167E0,3.502716064E-2,5.468877411E0,6.183491364E0,8.255023469E0
3.691206167E0,2.022294617E-1,5.126090240E0,6.791976013E0,8.511676455E0
3.701192167E0,4.426295471E-1,4.969964905E0,7.478598175E0,8.990322727E0
3.711177167E0,6.147715759E-1,4.661306763E0,8.512947235E0,9.725019046E0
3.721163167E0,9.455836487E-1,4.229903870E0,9.812844086E0,1.072744724E1
3.731148167E0,1.094673615E0,3.931125183E0,1.109373047E1,1.182044463E1
3.741134167E0,9.713301086E-1,3.678151245E0,1.172421936E1,1.232597251E1
3.751119167E0,3.638932800E-1,3.761078796E0,1.194575867E1,1.252913733E1
3.761105167E0,1.317260742E-1,3.534150696E0,1.150103348E1,1.203251196E1
3.771090167E0,-2.136058044E-1,3.485651550E0,1.057640625E1,1.113803229E1
3.781076167E0,-7.384144592E-1,3.887116699E0,9.696236572E0,1.047243696E1
3.791062167E0,-9.859996033E-1,4.133803711E0,8.898246002E0,9.860999455E0
3.801047167E0,-1.093326416E0,4.329596558E0,8.312214661E0,9.435766083E0
3.811033167E0,-1.146016846E0,4.554429016E0,7.983647919E0,9.262548913E0
3.821018167E0,-1.322649536E0,4.551734619E0,7.831414490E0,9.154165322E0
3.831004167E0,-1.081501007E0,4.794829102E0,7.924670563E0,9.325257855E0
3.840989167E0,-7.676037598E-1,4.920867004E0,8.186925201E0,9.582791444E0
3.850975167E0,-9.824070740E-1,4.446054382E0,8.313861237E0,9.479072312E0
3.860960167E0,-1.083446960E0,4.334236908E0,8.622220001E0,9.710929134E0
3.870946167E0,-5.634283447E-1,4.756508789E0,9.023685150E0,1.021610107E1
3.880931167E0,-8.237370300E-1,4.290827179E0,8.935219116E0,9.946249606E0
3.890917167E0,-9.909393311E-1,4.048181763E0,9.090296631E0,1.000016146E1
3.900902167E0,-9.996212769E-1,4.099974060E0,9.327104187E0,1.023737772E1
3.910888167E0,-8.345146179E-1,3.972738647E0,9.558373260E0,1.038467941E1
3.920873167E0,-5.664221191E-1,3.950435028E0,9.919871521E0,1.069254983E1
3.930859167E0,-4.149371338E-1,3.994293823E0,1.016191818E1,1.092662515E1
3.940844167E0,-3.486250305E-1,3.876039734E0,1.002570145E1,1.075452988E1
3.950830167E0,-4.144880676E-1,3.802841949E0,9.692045288E0,1.041965206E1
3.960816167E0,-5.182223511E-1,3.714824982E0,9.224118347E0,9.957551824E0
3.970801167E0,-7.961943054E-1,3.394191742E0,8.645421753E0,9.321897888E0
3.980787167E0,-8.714877319E-1,3.409909058E0,8.536747742E0,9.233798387E0
3.990772167E0,-4.894821167E-1,3.816912689E0,8.826545105E0,9.628931078E0
4.000758167E0,-3.156935120E-1,3.882476349E0,8.759933624E0,9.586955830E0
4.010743167E0,-1.624122620E-1,3.724854126E0,8.612789612E0,9.385151086E0
4.020729167E0,-1.902543640E-1,3.717220001E0,8.463100891E0,9.245431193E0
4.030714167E0,-2.318678284E-1,3.669918365E0,8.239615631E0,9.022933517E0
4.040700167E0,-1.963916016E-1,3.569477234E0,8.141569519E0,8.891844107E0
4.050685167E0,-1.365161133E-1,3.590733032E0,8.196804657E0,8.949838375E0
4.060671167E0,-1.130149841E-1,3.486399994E0,8.229436798E0,8.938198214E0
4.070656167E0,-5.388793945E-3,3.506458282E0,8.315956879E0,9.024988506E0
4.080642167E0,1.272354126E-1,3.642974396E0,8.320148163E0,9.083629052E0
4.090627167E0,1.353186035E-1,3.646117859E0,8.224347382E0,8.997353856E0
4.100613167E0,2.637515259E-1,3.669918365E0,8.227640533E0,9.012876035E0
4.110598167E0,2.719844055E-1,3.693569183E0,8.192164307E0,8.990438524E0
4.120584167E0,1.710942078E-1,3.596421204E0,8.060887299E0,8.828443959E0
4.130569167E0,9.894424438E-2,3.554807739E0,7.854316864E0,8.621875749E0
4.140555167E0,7.274871826E-2,3.500470734E0,7.727979584E0,8.484117879E0
4.150541167E0,7.828720093E-2,3.418591003E0,7.733218689E0,8.455504989E0
4.160526167E0,1.175056458E-1,3.436703339E0,7.771539001E0,8.498326651E0
4.170511167E0,1.865121460E-1,3.448528748E0,7.866441650E0,8.591160663E0
4.180497167E0,2.128573608E-1,3.422033844E0,8.075407104E0,8.773130786E0
4.190483167E0,2.712359619E-1,3.342399445E0,8.253237305E0,8.908486347E0
4.200468167E0,3.076103210E-1,3.207529907E0,8.305029602E0,8.908220300E0
4.210454167E0,3.342549133E-1,3.182232513E0,8.233927460E0,8.833792590E0
4.220439167E0,4.766088867E-1,3.313659210E0,8.020471344E0,8.691113506E0
4.230425167E0,5.788462830E-1,3.240611115E0,7.758815460E0,8.428276263E0
4.240410167E0,6.780899048E-1,3.190315704E0,7.673043823E0,8.337476940E0
4.250396167E0,7.662565613E-1,3.172652435E0,7.594008179E0,8.265702197E0
4.260381167E0,7.923023987E-1,3.197351074E0,7.445966034E0,8.142064060E0
4.270367167E0,6.155200195E-1,2.974015503E0,7.178921356E0,7.794905063E0
4.280352167E0,4.526586914E-1,2.484683075E0,6.751709747E0,7.208615289E0
4.290338167E0,7.571255493E-1,2.645149384E0,6.539151764E0,7.094403439E0
4.300323167E0,8.720864868E-1,2.845732269E0,6.361171875E0,7.023050236E0
4.310309167E0,1.265767822E0,2.847229156E0,6.479575653E0,7.189838850E0
4.320294167E0,1.509311371E0,3.124153290E0,6.859036560E0,7.686659686E0
4.330279833E0,1.282233582E0,2.825075226E0,7.004833374E0,7.661126783E0
4.340264833E0,8.463400269E-1,2.232756958E0,6.884783020E0,7.287093543E0
4.350250833E0,6.288423157E-1,2.245330811E0,7.045099640E0,7.420942126E0
4.360236833E0,5.137316895E-1,2.211201782E0,7.044949951E0,7.401665582E0
4.370221833E0,4.041595459E-1,2.156715088E0,7.000492401E0,7.336324609E0
4.380207833E0,1.149609375E-1,2.222578125E0,6.923552399E0,7.272458137E0
4.390192833E0,-7.499404907E-2,2.309846649E0,6.873706055E0,7.251817053E0
4.400178833E0,-3.182382202E-1,2.417772217E0,6.845564575E0,7.266956200E0
4.410163833E0,-5.454656982E-1,2.539469147E0,6.897506561E0,7.370348237E0
4.420149833E0,-6.411167908E-1,2.608475647E0,7.779921570E0,8.230574438E0
4.430134833E0,-5.366340637E-1,2.353406067E0,9.621092834E0,9.919270314E0
4.440120833E0,-8.045768738E-1,2.370620270E0,1.200338882E1,1.226166904E1
4.450105833E0,-6.553372192E-1,2.674338684E0,1.478101273E1,1.503528821E1
4.460091833E0,6.137237549E-2,3.525618439E0,1.787492889E1,1.821940819E1
4.470076833E0,1.256038055E0,4.525539093E0,2.103650436E1,2.155441142E1
4.480062833E0,2.945574646E0,4.541256409E0,2.316837112E1,2.379228531E1
4.490047833E0,3.531605988E0,4.429888000E0,2.429657501E1,2.494834074E1
4.500033833E0,3.283422089E0,4.375101929E0,2.501433243E1,2.560545263E1
4.510018833E0,2.986888733E0,3.970044250E0,2.561488358E1,2.609224054E1
4.520004833E0,2.883304138E0,3.670517120E0,2.633892792E1,2.674930396E1
4.529989833E0,3.034040680E0,3.597319336E0,2.635838745E1,2.677518811E1
4.539975833E0,3.396437073E0,3.812871094E0,2.480925888E1,2.532929326E1
4.549961833E0,3.360661469E0,4.720284119E0,2.269400757E1,2.342206454E1
4.559946833E0,3.226390686E0,5.193899231E0,2.040811111E1,2.130439357E1
4.569932833E0,2.343825989E0,5.141807556E0,1.799438049E1,1.886079093E1
4.579917833E0,1.002764740E0,4.890929260E0,1.584934113E1,1.661710986E1
4.589903833E0,5.688171387E-2,4.684508514E0,1.414947601E1,1.490488266E1
4.599888833E0,2.080673218E-1,4.708458710E0,1.312335983E1,1.394401121E1
4.609874833E0,2.986289978E-1,5.462141418E0,1.216520233E1,1.333852750E1
4.619859833E0,1.047671356E0,5.885461121E0,1.120914047E1,1.270358603E1
4.629845833E0,2.051633606E0,5.615572357E0,1.008542725E1,1.172432071E1
4.639830833E0,2.452649689E0,4.878954163E0,8.801247711E0,1.035768533E1
4.649816833E0,1.991907806E0,4.373605042E0,7.627089386E0,9.014910442E0
4.659801833E0,1.445693665E0,3.640429688E0,6.200256500E0,7.333889769E0
4.669787833E0,6.893165588E-1,2.949616241E0,4.390519867E0,5.334047056E0
4.679772833E0,-2.844085693E-3,2.645748138E0,2.559527435E0,3.681191654E0
4.689758833E0,-4.587959290E-1,2.426753540E0,7.682025146E-1,2.586457336E0
4.699743833E0,-6.921606445E-1,2.287393341E0,-5.101391602E-1,2.443664588E0
4.709729833E0,-9.842033386E-1,2.285297699E0,-1.184786224E0,2.755895532E0
4.719714833E0,-1.203497314E0,2.072739716E0,-1.361269226E0,2.756394315E0
4.729700833E0,-1.504671021E0,1.850451965E0,-1.108444977E0,2.629991943E0
4.739686833E0,-1.730850677E0,1.682650909E0,-6.276448059E-1,2.494212532E0
4.749671833E0,-1.656006317E0,1.481319580E0,-1.624122620E-1,2.227788671E0
4.759657833E0,-1.506916351E0,1.563648376E0,3.893403625E-1,2.206213737E0
4.769642833E0,-1.236728210E0,1.448687439E0,7.225474548E-1,2.037220358E0
4.779628833E0,-1.029559021E0,1.287622375E0,8.960366821E-1,1.876391456E0
4.789613833E0,-9.312135315E-1,1.326242065E0,1.105600891E0,1.961741570E0
4.799599833E0,-5.689668274E-1,1.257085876E0,1.214424591E0,1.838155390E0
4.809584833E0,-1.675016785E-1,1.219514008E0,1.047821045E0,1.616539566E0
4.819570833E0,1.549278259E-1,1.284628601E0,8.915460205E-1,1.571345786E0
4.829555833E0,3.242257690E-1,1.354383545E0,8.655001831E-1,1.639685245E0
4.839541833E0,3.986210632E-1,1.407672729E0,1.186133423E0,1.883441999E0
4.849526833E0,5.343887329E-1,1.446292419E0,1.775757294E0,2.351732775E0
4.859512833E0,7.682025146E-1,1.427731018E0,2.540966034E0,3.014143220E0
4.869497833E0,9.184899902E-1,1.317859497E0,3.122207336E0,3.511204376E0
4.879483833E0,9.427395630E-1,1.310524750E0,3.418441315E0,3.780472725E0
4.889468833E0,9.476792908E-1,1.475182343E0,3.340004425E0,3.772252449E0
4.899454833E0,1.066681824E0,1.648372192E0,3.443439331E0,3.963863699E0
4.909439833E0,1.463656311E0,1.717378693E0,4.209246826E0,4.775922761E0
4.919425833E0,1.768871613E0,1.930385742E0,5.693859558E0,6.267003476E0
4.929411833E0,1.427731018E0,2.528990936E0,7.710016937E0,8.238845319E0
4.939396833E0,5.767506409E-1,3.188519440E0,9.505832520E0,1.004291538E1
4.949382833E0,3.764671326E-1,3.438050537E0,1.048883835E1,1.104434918E1
4.959367833E0,6.596781921E-1,3.894301758E0,1.088910599E1,1.158332382E1
4.969353833E0,5.685177612E-1,5.667214966E0,1.166688858E1,1.298294370E1
4.979338833E0,1.157393188E0,7.517217865E0,1.371942032E1,1.568663818E1
4.989324833E0,1.789229279E0,8.293952637E0,1.717438568E1,1.915595248E1
4.999309833E0,2.498604126E0,6.861132202E0,1.888487869E1,2.024738998E1
5.009295833E0,3.040776672E0,5.417384491E0,1.761686554E1,1.868015870E1
5.019280833E0,3.131937103E0,6.264023895E0,1.705852661E1,1.844018318E1
5.029266833E0,3.830684052E0,6.589596863E0,1.888877060E1,2.036866667E1
5.039251833E0,4.602628784E0,5.526657257E0,2.147509232E1,2.264746613E1
5.049237833E0,4.777614899E0,4.257147217E0,2.359528336E1,2.444762367E1
5.059222833E0,4.074526978E0,3.291205902E0,2.449072128E1,2.504454502E1
5.069208833E0,2.446811829E0,3.065774689E0,2.366234390E1,2.398525342E1
5.079193833E0,1.224603424E0,2.846031647E0,2.103156464E1,2.125855735E1
5.089179833E0,4.132905579E-1,2.920576630E0,1.739203308E1,1.764039091E1
5.099164833E0,-2.653981018E-1,3.582649841E0,1.411355072E1,1.456358919E1
5.109150833E0,-2.204914856E-1,3.851790161E0,1.150163223E1,1.213146520E1
5.119135833E0,-1.580712891E-1,4.052223358E0,9.727671204E0,1.053912177E1
5.129121833E0,-1.868115234E-1,4.054019623E0,8.328081665E0,9.264281832E0
5.139107833E0,-3.076103210E-1,3.931723938E0,7.181765442E0,8.193340716E0
5.149092833E0,-2.965333557E-1,3.748954010E0,6.243815918E0,7.288883688E0
5.159078833E0,-1.754351807E-1,3.533102875E0,5.493426361E0,6.533860009E0
5.169063833E0,1.923500061E-1,3.191213837E0,4.983137512E0,5.920515496E0
5.179049833E0,-2.565664673E-1,3.591331787E0,4.554578705E0,5.805831339E0
5.189034833E0,-5.625302124E-1,3.790268097E0,4.076173553E0,5.594440394E0
5.199020833E0,-1.191522217E-1,3.494932251E0,3.629801788E0,5.040258893E0
5.209005833E0,1.011895752E-1,3.483106842E0,3.404220886E0,4.871446648E0
5.218991833E0,-2.395019531E-3,3.656296692E0,3.586242371E0,5.121488609E0
5.228976833E0,9.684860229E-2,3.529959412E0,3.996838531E0,5.333358355E0
5.238962833E0,2.380050659E-1,3.411106567E0,4.301305389E0,5.494863281E0
5.248947833E0,2.841091919E-1,3.349734192E0,4.690346375E0,5.770683348E0
5.258933833E0,1.154100037E-1,3.287463684E0,5.232069855E0,6.180233969E0
5.268918833E0,-4.358935547E-1,3.438499603E0,5.746999054E0,6.711280119E0
5.278904833E0,-1.365161133E0,3.851790161E0,5.701493683E0,7.014768890E0
5.288889833E0,-1.744622040E0,3.932622070E0,5.018763428E0,6.610386430E0
5.298875833E0,-2.032473450E0,4.226760406E0,4.561763763E0,6.542640177E0
5.308860833E0,-2.013912048E0,4.793182526E0,4.636608124E0,6.966245427E0
5.318846833E0,-8.940907288E-1,5.267695770E0,5.614823914E0,7.750758965E0
5.328832833E0,2.694396973E-1,5.696104889E0,7.433841248E0,9.369109048E0
5.338818083E0,2.019001465E0,5.202132111E0,9.595196686E0,1.109983535E1
5.348804083E0,3.717968445E0,4.230203247E0,1.188618256E1,1.315291772E1
5.358789083E0,3.966751099E0,3.709436188E0,1.379426468E1,1.482486995E1
5.368775083E0,3.384162598E0,3.430566101E0,1.487681351E1,1.563780421E1
5.378760083E0,3.118914185E0,2.998414764E0,1.509910126E1,1.570671753E1
5.388746083E0,3.264411621E0,2.378104706E0,1.444077026E1,1.499491951E1
5.398731083E0,2.962040405E0,2.295177155E0,1.368379440E1,1.418759144E1
5.408717083E0,2.189197540E0,2.760709076E0,1.246922012E1,1.295745156E1
5.418702083E0,1.632804565E0,3.046614532E0,1.089793762E1,1.143297666E1
5.428688083E0,9.363029480E-1,3.445385284E0,9.159602509E0,9.830852510E0
5.438673083E0,3.959266663E-1,3.912264404E0,7.605983276E0,8.562333344E0
5.448659083E0,2.450404358E-1,4.052373047E0,6.575526123E0,7.727827374E0
5.458644083E0,-1.866618347E-1,4.384083252E0,6.098468170E0,7.513078106E0
5.468630083E0,-8.770262146E-1,4.908293152E0,5.910010071E0,7.732317614E0
5.478615083E0,-7.526348877E-1,4.664150848E0,5.837710419E0,7.509968398E0
5.488601083E0,-2.252815247E-1,4.416715393E0,6.095474396E0,7.530799077E0
5.498586083E0,1.348695374E-1,4.760550385E0,6.578070831E0,8.121086480E0
5.508572083E0,7.002438354E-1,4.870870972E0,6.997947693E0,8.554939939E0
5.518557083E0,1.257085876E0,4.913981323E0,7.480544128E0,9.038031744E0
5.528543083E0,1.782942352E0,4.983586578E0,8.162226562E0,9.728153014E0
5.538528083E0,2.284100189E0,4.917274475E0,8.964408417E0,1.047651279E1
5.548514083E0,2.482138367E0,4.652325439E0,9.744286652E0,1.107954264E1
5.558500083E0,2.414329376E0,4.439917145E0,1.044587769E1,1.160423247E1
5.568485083E0,2.187550964E0,4.323309631E0,1.077189972E1,1.181144398E1
5.578471083E0,1.727856903E0,4.060605927E0,1.063298859E1,1.151236102E1
5.588456083E0,1.318907318E0,3.858825531E0,1.044273422E1,1.121074257E1
5.598442083E0,8.153544617E-1,3.766916656E0,1.018751495E1,1.089219560E1
5.608427083E0,4.049079895E-1,3.726500702E0,9.804311829E0,1.049644170E1
5.618413083E0,1.381626892E-1,3.770658875E0,9.409133606E0,1.013749242E1
5.628398083E0,-1.321751404E-1,3.807332611E0,9.017098846E0,9.788836677E0
5.638384083E0,-3.941304016E-1,3.843108215E0,8.673263855E0,9.494752521E0
5.648369083E0,-5.522016907E-1,3.874243469E0,8.498427429E0,9.356172184E0
5.658355083E0,-7.029382324E-1,3.786076813E0,8.440647583E0,9.277555250E0
5.668340083E0,-7.101232910E-1,3.669768677E0,8.542435913E0,9.324413577E0
5.678326083E0,-6.273454285E-1,3.634591827E0,8.715476074E0,9.463791166E0
5.688311083E0,-5.673202515E-1,3.569177856E0,8.853489075E0,9.562695835E0
5.698297083E0,-4.855902100E-1,3.502117310E0,8.925788727E0,9.600537896E0
5.708282083E0,-4.300556946E-1,3.487148438E0,8.959618378E0,9.623924023E0
5.718268083E0,-2.808160400E-1,3.498524780E0,9.074429626E0,9.729532688E0
5.728253083E0,-5.448669434E-2,3.525468750E0,9.299262085E0,9.945258872E0
5.738239083E0,1.811233521E-1,3.544928284E0,9.478289795E0,1.012113134E1
5.748224083E0,4.246669006E-1,3.578308868E0,9.656569061E0,1.030698610E1
5.758210083E0,3.701802063E-1,3.553909607E0,9.651180267E0,1.029138414E1
5.768196083E0,1.761836243E-1,3.517984314E0,9.405241699E0,1.004319798E1
5.778181083E0,1.107696533E-2,3.560046844E0,9.114246826E0,9.784863384E0
5.788167083E0,-9.370513916E-2,3.596720581E0,8.882229309E0,9.583275906E0
5.798152083E0,-1.901046753E-1,3.650159454E0,8.705297241E0,9.441504323E0
5.808138083E0,-2.836601257E-1,3.670217743E0,8.531658325E0,9.291940332E0
5.818123083E0,-3.664379883E-1,3.696562958E0,8.342601471E0,9.132242540E0
5.828109083E0,-3.255729675E-1,3.746708679E0,8.170609131E0,8.994591556E0
5.838094083E0,-3.019221497E-1,3.765868835E0,8.039631500E0,8.883051262E0
5.848080083E0,-2.543211365E-1,3.693269806E0,7.926616516E0,8.748495327E0
5.858065083E0,-1.188528442E-1,3.650758209E0,7.840695190E0,8.649778180E0
5.868051083E0,1.634600830E-1,3.666625214E0,7.945327606E0,8.752090632E0
5.878036083E0,4.281097412E-1,3.748055878E0,8.094567261E0,8.930465831E0
5.888022083E0,5.441184998E-1,3.628304901E0,8.051007843E0,8.847563997E0
5.898007083E0,4.772076416E-1,3.336112518E0,7.861950989E0,8.553808930E0
5.907993083E0,1.212478638E-2,3.307372284E0,7.471113739E0,8.170458918E0
5.917978083E0,-4.089495850E-1,3.390748901E0,7.003935242E0,7.792273529E0
5.927964083E0,-1.556762695E-1,3.093018036E0,6.631060638E0,7.318603751E0
5.937949083E0,1.577719116E-1,2.987487488E0,6.639592896E0,7.282456130E0
5.947935083E0,2.098635864E-1,3.020119629E0,6.640640717E0,7.298169252E0
5.957920083E0,3.008743286E-1,2.726430359E0,6.394702148E0,6.958172420E0
5.967906083E0,1.193019104E-1,2.395169220E0,6.018983459E0,6.479138093E0
5.977891083E0,1.853146362E-1,2.069147186E0,5.504203949E0,5.883194090E0
5.987877083E0,2.136058044E-1,2.165846100E0,5.084776154E0,5.530955189E0
5.997863083E0,1.122665405E-2,2.534230042E0,4.605323181E0,5.256562522E0
6.007848083E0,1.034798126E0,2.463876343E0,4.870421906E0,5.555403076E0
6.017834083E0,1.575922852E0,2.618654480E0,5.711373138E0,6.477705400E0
6.027819083E0,1.665736084E0,2.637664948E0,6.840924225E0,7.518656617E0
6.037805083E0,1.638492737E0,2.235750732E0,7.960595856E0,8.429372822E0
6.047790083E0,1.404080200E0,1.854493561E0,8.793014832E0,9.095476755E0
6.057776083E0,1.161883850E0,1.440454559E0,9.247170410E0,9.430537843E0
6.067761083E0,9.822573853E-1,1.225651245E0,9.425449677E0,9.555425273E0
6.077747083E0,1.111438751E0,1.194066925E0,9.313781891E0,9.455560535E0
6.087732083E0,1.695224762E0,1.082997894E0,9.060807953E0,9.281428349E0
6.097718083E0,2.076931000E0,1.162931671E0,8.932524719E0,9.244244172E0
6.107703083E0,1.368603973E0,1.711840210E0,8.612939301E0,8.887417912E0
6.117689083E0,8.690927124E-1,1.799108734E0,7.722890167E0,7.977164090E0
6.127674083E0,9.964778137E-1,1.625469818E0,6.495143280E0,6.769195402E0
6.137660083E0,1.418300629E0,1.922152863E0,5.749394073E0,6.225895961E0
6.147645083E0,1.947899323E0,2.391427002E0,5.431604919E0,6.246244222E0
6.157631083E0,2.381846924E0,2.374063110E0,5.688021698E0,6.607795491E0
6.167616083E0,2.301913147E0,2.235002289E0,6.698869629E0,7.427576568E0
6.177602083E0,2.243684235E0,2.175426178E0,7.842192078E0,8.441953245E0
6.187587083E0,2.314487000E0,1.839973755E0,9.640103302E0,1.008334990E1
6.197573083E0,1.821112976E0,1.363215179E0,1.188797882E1,1.210367087E1
6.207558083E0,1.811383209E0,1.137484589E0,1.365206039E1,1.381860099E1
6.217544083E0,2.179467773E0,1.521436157E0,1.510074783E1,1.533288730E1
6.227529083E0,2.184108124E0,2.337089996E0,1.550700302E1,1.583349174E1
6.237515083E0,2.169887695E0,3.320694580E0,1.521525970E1,1.572385299E1
6.247501083E0,2.479893036E0,4.257596283E0,1.546718582E1,1.623301675E1
6.257486083E0,2.865640869E0,5.103786621E0,1.695853455E1,1.794024608E1
6.267472083E0,3.373983765E0,5.538033600E0,1.957883560E1,2.062484875E1
6.277457083E0,4.362079010E0,5.163213043E0,2.341565689E1,2.437169444E1
6.287443083E0,5.275030518E0,3.639980621E0,2.723930557E1,2.798312302E1
6.297428083E0,5.857918396E0,1.770967255E0,2.931638626E1,2.994832276E1
6.307414083E0,5.976920929E0,9.873468018E-1,2.928540070E1,2.990540305E1
6.317399083E0,5.570965118E0,1.814826050E0,2.838981308E1,2.898811364E1
6.327385083E0,5.956114197E0,2.949765930E0,2.640553940E1,2.722919254E1
6.337369833E0,6.358028412E0,4.049678650E0,2.328063766E1,2.447064594E1
6.347355833E0,6.314618683E0,5.160967712E0,1.995245865E1,2.155482783E1
6.357340833E0,6.483467560E0,6.466702423E0,1.758528122E1,1.982664135E1
6.367326833E0,6.594985657E0,7.168892212E0,1.559427155E1,1.838662983E1
6.377311833E0,6.170468445E0,7.202272797E0,1.452384750E1,1.734616847E1
6.387297833E0,5.134622498E0,6.241720276E0,1.463401840E1,1.671759297E1
6.397282833E0,3.939358063E0,4.880001984E0,1.530492325E1,1.654006158E1
6.407268833E0,3.068618774E0,3.757935333E0,1.575818069E1,1.648813992E1
6.417253833E0,2.510429535E0,2.854114838E0,1.567210968E1,1.612647667E1
6.427239833E0,2.326162720E0,2.337838440E0,1.547002991E1,1.581765934E1
6.437224833E0,1.865869904E0,2.017504578E0,1.469883362E1,1.495351146E1
6.447210833E0,1.079555054E0,1.589245148E0,1.247580643E1,1.262287151E1
6.457195833E0,3.776646423E-1,8.491841125E-1,8.406518555E0,8.457736012E0
6.467181833E0,-6.887178040E-1,9.858499146E-1,3.608845367E0,3.803944946E0
6.477166833E0,-1.206940155E0,1.535656586E0,-5.448669434E-1,2.027763712E0
6.487152833E0,-1.743424530E0,1.442550201E0,-3.982019348E0,4.580060946E0
6.497138833E0,-2.672243042E0,1.342408447E0,-6.349795532E0,7.018749648E0
6.507123833E0,-3.560795288E0,1.416654053E0,-7.374265137E0,8.310593125E0
6.517109833E0,-3.846251678E0,1.081351318E0,-7.274722137E0,8.299671971E0
6.527094833E0,-3.281027069E0,8.087681580E-1,-6.170767822E0,7.035454504E0
6.537080833E0,-2.521356812E0,9.681866455E-1,-4.505181427E0,5.252740736E0
6.547065833E0,-1.818867645E0,1.022823029E0,-2.866389313E0,3.545509012E0
6.557051833E0,-1.161285095E0,8.550219727E-1,-1.754351807E0,2.270990072E0
6.567036833E0,-6.652166748E-1,6.971003723E-1,-9.482780457E-1,1.351922115E0
6.577022833E0,-6.277944946E-1,7.670050049E-1,-6.691085815E-2,9.934282400E-1
6.587007833E0,-4.761598206E-1,8.072712708E-1,6.333329773E-1,1.131161235E0
6.596993833E0,1.941462708E-1,6.976991272E-1,8.294252014E-1,1.101100818E0
6.606978833E0,2.480342102E-1,9.315129089E-1,6.078858948E-1,1.139632629E0
6.616964833E0,2.673440552E-1,1.135838013E0,1.883084106E-1,1.181973304E0
6.626949833E0,4.076023865E-1,1.428928528E0,-1.960922241E-2,1.486055505E0
6.636935833E0,5.170248413E-1,1.601220245E0,1.689985657E-1,1.691088843E0
6.646920833E0,5.635780334E-1,1.582359467E0,6.503974915E-1,1.801249172E0
6.656906833E0,7.274871826E-1,1.563947754E0,1.260528717E0,2.136376096E0
6.666891833E0,9.816586304E-1,1.631157990E0,1.971550140E0,2.740682398E0
6.676877833E0,1.228495331E0,1.440005493E0,2.653831329E0,3.259698962E0
6.686862833E0,1.469045105E0,1.313817902E0,3.493734741E0,4.011283266E0
6.696848833E0,1.738933868E0,1.434766388E0,4.163741455E0,4.734890547E0
6.706833833E0,2.013462982E0,1.510508881E0,4.103865967E0,4.814289785E0
6.716819833E0,2.154320068E0,1.885479126E0,3.801644440E0,4.759057358E0
6.726804833E0,2.425256653E0,2.370769958E0,4.003125458E0,5.246659267E0
6.736790833E0,2.727777557E0,3.059787140E0,5.304070129E0,6.703448939E0
6.746775833E0,2.218237152E0,3.616030426E0,6.637646942E0,7.877474788E0
6.756761833E0,4.927752686E-1,4.293371887E0,7.509733429E0,8.664407989E0
6.766747833E0,-3.781137085E-1,4.690046997E0,7.752678223E0,9.068821888E0
6.776732833E0,-6.698570251E-1,5.877228241E0,8.506360931E0,1.036092161E1
6.786718833E0,-6.135740662E-1,7.543563080E0,1.005803421E1,1.258752832E1
6.796703833E0,-2.621049500E-1,8.517288208E0,1.339070389E1,1.587210912E1
6.806689833E0,1.355431366E0,7.752528534E0,1.831396591E1,1.993339510E1
6.816674833E0,2.681972809E0,6.067632294E0,2.209734833E1,2.307166970E1
6.826660833E0,2.747237091E0,5.138364716E0,2.417697372E1,2.486918097E1
6.836645833E0,3.268602905E0,4.254752197E0,2.502151749E1,2.559029149E1
6.846631833E0,3.735182648E0,3.808081055E0,2.539663742E1,2.595076614E1
6.856616833E0,4.174968109E0,3.482508087E0,2.518512726E1,2.576526453E1
6.866602833E0,4.398603058E0,3.250640259E0,2.421439590E1,2.482441016E1
6.876587833E0,4.260739746E0,3.114423523E0,2.215782257E1,2.277767851E1
6.886573833E0,3.651656342E0,3.570674744E0,1.952330109E1,2.018027744E1
6.896558833E0,3.166365509E0,4.091441803E0,1.663026718E1,1.741641620E1
6.906544833E0,2.668800201E0,4.481979675E0,1.403795792E1,1.497581045E1
6.916529833E0,2.083666992E0,4.682861938E0,1.211939758E1,1.315867250E1
6.926515833E0,1.701062622E0,4.561913452E0,1.083626587E1,1.187978646E1
6.936500833E0,1.444496155E0,4.195026398E0,1.007494904E1,1.100860635E1
6.946486833E0,1.103954315E0,3.852688293E0,9.500294037E0,1.031103821E1
6.956471833E0,8.119116211E-1,3.465443573E0,8.860225067E0,9.548407610E0
6.966457833E0,6.135740662E-1,3.162922668E0,8.104446716E0,8.721388050E0
6.976442833E0,4.194277954E-1,2.992726593E0,7.208859100E0,7.816647726E0
6.986428833E0,2.210902405E-1,2.897823944E0,6.224655762E0,6.869687319E0
6.996413833E0,7.574249268E-2,2.815644836E0,5.392835541E0,6.084099600E0
7.006399833E0,-1.499880981E-1,2.815794525E0,4.926704865E0,5.676584894E0
7.016384833E0,-3.484753418E-1,2.797981567E0,4.536316681E0,5.341189469E0
7.026370833E0,-3.770658875E-1,2.802322540E0,3.952979736E0,4.860168629E0
7.036356833E0,-3.388952637E-1,3.077899475E0,3.505709839E0,4.677426285E0
7.046341833E0,-1.140628052E-1,3.352129211E0,3.553909607E0,4.886722221E0
7.056327833E0,-6.107299805E-2,3.459605713E0,3.956721954E0,5.256258196E0
7.066312833E0,-1.739382935E-1,3.373534698E0,4.445006561E0,5.582927030E0
7.076298833E0,-3.577560425E-2,3.201093292E0,5.071304169E0,5.997199691E0
7.086283833E0,1.826202393E-2,3.227588196E0,5.815257111E0,6.650930335E0
7.096269833E0,4.475692749E-2,3.482208710E0,6.383176117E0,7.271362872E0
7.106254833E0,-2.353106689E-1,4.055067444E0,6.601871338E0,7.751364283E0
7.116240833E0,-3.882925415E-1,4.459077301E0,6.522835693E0,7.910848688E0
7.126225833E0,-4.195774841E-1,4.642895050E0,6.572232971E0,8.057714685E0
7.136211833E0,-3.867956543E-1,4.959486694E0,6.729855194E0,8.368815333E0
7.146196833E0,1.501377869E-1,5.350623322E0,7.676636353E0,9.358549940E0
7.156182833E0,1.350192261E0,5.122647400E0,9.604926453E0,1.096900851E1
7.166167833E0,2.864293671E0,4.383933563E0,1.254675888E1,1.359574235E1
7.176153833E0,4.170926514E0,3.203937378E0,1.511781235E1,1.600656406E1
7.186138833E0,4.157753906E0,2.634072418E0,1.706271790E1,1.775842327E1
7.196124833E0,3.304228821E0,2.609373779E0,1.803150330E1,1.851652966E1
7.206109833E0,2.981200562E0,1.924697571E0,1.693682968E1,1.730457215E1
7.216095833E0,2.205962677E0,1.724863129E0,1.475227249E1,1.501569072E1
7.226080833E0,1.341210938E0,2.273921356E0,1.265827698E1,1.293064349E1
7.236066833E0,8.719367981E-1,2.516267395E0,1.060424835E1,1.093352452E1
7.246051833E0,4.013154602E-1,2.844085693E0,8.916657715E0,9.367852600E0
7.256037833E0,1.788780212E-1,3.305576019E0,7.540120239E0,8.234818965E0
7.266022833E0,3.727249146E-2,3.891158295E0,6.627019043E0,7.685042844E0
7.276008833E0,-1.155596924E-1,4.380191345E0,6.178701324E0,7.574680212E0
7.285994833E0,-1.175056458E-1,4.483177185E0,5.735772400E0,7.280918230E0
7.295979833E0,-4.085005188E-1,4.554129639E0,5.399870911E0,7.075703166E0
7.305965833E0,3.891906738E-3,4.022734680E0,5.304668884E0,6.657471098E0
7.315950833E0,-8.529263306E-1,4.679269409E0,5.367089081E0,7.171379974E0
7.325936833E0,-1.441502380E0,5.040617981E0,5.595214691E0,7.667606288E0
7.335921333E0,-5.984555054E-1,4.231251068E0,5.736221466E0,7.153032315E0
7.345907333E0,-4.939727783E-2,4.368665314E0,6.426735535E0,7.771139321E0
7.355892333E0,8.604107666E-1,4.668491821E0,7.645800476E0,8.999632631E0
7.365878333E0,1.783690796E0,4.479584656E0,9.180109863E0,1.036931283E1
7.375863333E0,2.252366180E0,4.036805420E0,1.067969147E1,1.163721450E1
7.385849333E0,2.194586334E0,3.595523071E0,1.165177002E1,1.238982405E1
7.395834333E0,2.322121124E0,2.931054840E0,1.205173828E1,1.261854685E1
7.405820333E0,2.512974243E0,2.379302216E0,1.208571762E1,1.257142351E1
7.415805333E0,2.007924500E0,2.479593658E0,1.167048111E1,1.209877163E1
7.425791333E0,1.430126038E0,2.634072418E0,1.074405762E1,1.115429837E1
7.435776333E0,1.077758789E0,2.651885376E0,9.889335022E0,1.029529054E1
7.445762333E0,7.548802185E-1,2.918780365E0,9.347611542E0,9.821759746E0
7.455747333E0,5.770500183E-1,3.232378235E0,8.801547089E0,9.394066581E0
7.465733333E0,4.278103638E-1,3.431613922E0,8.288563843E0,8.981051519E0
7.475718333E0,1.730401611E-1,3.586841125E0,8.006250916E0,8.774703749E0
7.485704333E0,-1.556762695E-2,3.622766418E0,7.806715851E0,8.606363416E0
7.495689333E0,-5.777984619E-2,3.619772644E0,7.712411957E0,8.519823396E0
7.505675333E0,-9.595046997E-2,3.633544006E0,7.708520050E0,8.522507254E0
7.515660333E0,2.888992310E-2,3.616778870E0,7.836054840E0,8.630508645E0
7.525646333E0,1.960922241E-1,3.596570892E0,8.135581970E0,8.897273084E0
7.535631333E0,2.868035889E-1,3.560495911E0,8.413254547E0,9.140144392E0
7.545617333E0,3.944297791E-1,3.506607971E0,8.514294434E0,9.216565739E0
7.555602333E0,4.349954224E-1,3.497177582E0,8.602012024E0,9.295917540E0
7.565588333E0,5.364843750E-1,3.500919800E0,8.848249969E0,9.530780789E0
7.575573333E0,6.655160522E-1,3.441493378E0,9.217082977E0,9.861105764E0
7.585559333E0,6.176156616E-1,3.374133453E0,9.586215363E0,1.018144148E1
7.595545333E0,4.405339050E-1,3.270698547E0,9.735604706E0,1.027976352E1
7.605530333E0,2.255809021E-1,3.114722900E0,9.709409180E0,1.019926527E1
7.615516333E0,3.517684937E-2,2.976560211E0,9.658365326E0,1.010668931E1
7.625501333E0,-1.167572021E-1,2.879861298E0,9.602232056E0,1.002547225E1
7.635487333E0,-1.784289551E-1,2.903212738E0,9.562564545E0,9.995154915E0
7.645472333E0,-1.778302002E-1,2.991379395E0,9.459429016E0,9.922740124E0
7.655458333E0,-2.450404358E-1,3.018922119E0,9.306447144E0,9.786924645E0
7.665443333E0,-4.592449951E-1,2.855012970E0,8.966504059E0,9.421263188E0
7.675429333E0,-6.090834045E-1,2.921025696E0,9.111103363E0,9.587261246E0
7.685414333E0,-5.731581116E-1,2.984044647E0,9.067993011E0,9.563552161E0
7.695400333E0,-6.192622375E-1,2.908451843E0,8.799750824E0,9.288605515E0
7.705385333E0,-6.029461670E-1,2.918031921E0,8.682544556E0,9.179598811E0
7.715371333E0,-4.360432434E-1,3.039728851E0,8.577912140E0,9.111018707E0
7.725356333E0,-2.059716797E-1,3.132685547E0,8.581953735E0,9.138165734E0
7.735342333E0,-9.939331055E-2,3.121907959E0,8.712631989E0,9.255600710E0
7.745327333E0,3.712280273E-2,3.225193176E0,8.872050476E0,9.440155125E0
7.755313333E0,2.206411743E-1,3.154689789E0,8.840466156E0,9.389067688E0
7.765298333E0,2.258802795E-1,3.153192902E0,8.768765259E0,9.321206550E0
7.775284333E0,2.219883728E-1,3.199446716E0,8.649313660E0,9.224769098E0
7.785269333E0,5.333409119E-1,3.041974182E0,8.366701355E0,8.918506098E0
7.795255333E0,4.364923096E-1,3.107837219E0,8.202941895E0,8.782791893E0
7.805240333E0,4.836442566E-1,3.101400604E0,8.180638275E0,8.762159555E0
7.815226333E0,7.153623962E-1,3.049159241E0,8.127798157E0,8.710351216E0
7.825211333E0,8.126600647E-1,3.168012085E0,8.009993134E0,8.651977054E0
7.835197333E0,7.548802185E-1,3.194207611E0,7.818690948E0,8.479665946E0
7.845182333E0,7.902067566E-1,3.012635193E0,7.443720703E0,8.069038073E0
7.855168333E0,8.514294434E-1,2.760709076E0,6.772965546E0,7.363389775E0
7.865153333E0,6.806346130E-1,2.561772766E0,6.270610199E0,6.807826044E0
7.875139333E0,6.182144165E-1,2.384391632E0,5.868695984E0,6.364676352E0
7.885125333E0,7.692503357E-1,2.330204315E0,5.540578308E0,6.059670471E0
7.895110333E0,9.415420532E-1,2.211501160E0,5.162614288E0,5.694719054E0
7.905095333E0,1.312321014E0,1.984123993E0,4.974305878E0,5.513860121E0
7.915081333E0,1.598226471E0,1.814077606E0,4.818629608E0,5.391140576E0
7.925067333E0,1.858684845E0,1.352437592E0,4.605173492E0,5.146981609E0
7.935052333E0,1.910776520E0,8.550219727E-1,4.349505157E0,4.827040977E0
7.945038333E0,1.589993591E0,4.489164734E-1,4.211043091E0,4.523548334E0
7.955023333E0,1.553020477E0,1.968406677E-1,3.896547089E0,4.199249703E0
7.965009333E0,1.667083282E0,1.264869690E-1,3.388802948E0,3.778776395E0
7.974994333E0,2.464924164E0,-1.080752563E-1,2.872975616E0,3.787019974E0
7.984980333E0,2.863395538E0,5.239105225E-3,2.523602142E0,3.816756376E0
7.994965333E0,2.794987793E0,-1.658551025E-1,2.282752991E0,3.612537321E0
8.004951333E0,2.902763672E0,-7.087760925E-1,2.019151154E0,3.606296142E0
8.014936333E0,2.386187897E0,-1.042132874E0,2.108365631E0,3.350393893E0
8.024922333E0,2.832859039E0,-1.609752502E0,1.549727325E0,3.608053248E0
8.034907333E0,3.630849609E0,-1.453028412E0,1.121018829E0,4.068297392E0
8.044893333E0,4.176914062E0,-1.417701874E0,8.925938416E-1,4.500357036E0
8.054878333E0,5.152136078E0,-1.701362000E0,8.113128662E-1,5.486106760E0
8.064864333E0,5.479505310E0,-1.574126587E0,1.337319031E0,5.855875267E0
8.074849333E0,5.408702545E0,-1.783990173E0,2.166295166E0,6.093399618E0
8.084835333E0,5.020110626E0,-2.140249329E0,2.830763397E0,6.147796296E0
8.094820333E0,4.593797150E0,-2.200274506E0,3.034639435E0,5.929014813E0
8.104806333E0,4.408332825E0,-2.013313293E0,3.036585388E0,5.719062819E0
8.114791333E0,4.265679474E0,-2.213447113E0,2.777174835E0,5.550501740E0
8.124777333E0,4.130360870E0,-2.320025482E0,1.952090607E0,5.123773697E0
8.134762333E0,4.474495239E0,-1.933229828E0,8.316705322E-1,4.944710415E0
8.144748333E0,5.830225983E0,-1.632505188E0,3.125500488E-1,6.062532122E0
8.154733333E0,8.726103973E0,-2.306703186E0,-1.466949463E-2,9.025850948E0
8.164719333E0,1.142633881E1,-3.453767853E0,7.945477295E-1,1.196332048E1
8.174704333E0,1.401340897E1,-5.280269623E0,2.960842896E0,1.526510625E1
8.184690333E0,1.908261749E1,-6.859934692E0,5.041366425E0,2.089546290E1
8.194675333E0,2.317660400E1,-7.936346283E0,5.625601501E0,2.513539253E1
8.204661333E0,2.642080765E1,-1.043060944E1,4.750521240E0,2.879972469E1
8.214646333E0,2.864009262E1,-1.260019775E1,2.475252686E0,3.138704772E1
8.224632333E0,2.980676651E1,-1.314731003E1,7.497908020E-1,3.258615161E1
8.234618333E0,3.116129974E1,-1.358889175E1,-5.999523926E-1,3.400065475E1
8.244603333E0,3.272943878E1,-1.349862946E1,-9.433383179E-1,3.541636694E1
8.254589333E0,3.336995682E1,-1.269060974E1,-5.352868652E-1,3.570563157E1
8.264574333E0,3.230387375E1,-1.246727417E1,-1.975891113E-2,3.462619781E1
8.274560333E0,3.036121353E1,-1.372840164E1,1.942959595E-1,3.332131525E1
8.284545333E0,2.781021835E1,-1.493115051E1,5.665718079E-1,3.157005708E1
8.294531333E0,2.567176529E1,-1.540042465E1,5.987548828E-2,2.993687020E1
8.304516333E0,2.367372025E1,-1.447400116E1,-1.676513672E-2,2.774782912E1
8.314502333E0,2.143302979E1,-1.248373993E1,4.343966675E-1,2.480740270E1
8.324487333E0,1.904070465E1,-9.158105621E0,1.157991943E0,2.116034682E1
8.334473417E0,1.764680328E1,-5.176834717E0,2.093845825E0,1.850928076E1
8.344458417E0,1.657473267E1,-1.178349609E0,2.449655914E0,1.679616280E1
8.354444417E0,1.462294144E1,2.040706329E0,2.142195282E0,1.491924593E1
8.364429417E0,1.241488312E1,3.978726196E0,1.574725342E0,1.313161623E1
8.374415417E0,1.056248520E1,5.040767670E0,5.969586182E-1,1.171886479E1
8.384400417E0,8.750054169E0,5.920039215E0,-3.150947571E-1,1.056927609E1
8.394386417E0,7.380402374E0,6.006409607E0,-1.278191986E0,9.601097350E0
8.404371417E0,6.493945770E0,5.251529388E0,-2.206262054E0,8.638141284E0
8.414357417E0,5.492677917E0,4.283492432E0,-2.558479614E0,7.420487589E0
8.424342417E0,5.166057129E0,3.771706696E0,-2.274370422E0,6.788716998E0
8.434328417E0,4.921316071E0,3.321143646E0,-1.827549591E0,6.212027406E0
8.444313417E0,4.566553802E0,3.091221771E0,-1.262025604E0,5.657011074E0
8.454299417E0,3.972439270E0,2.695893860E0,-6.559359741E-1,4.845448324E0
8.464284417E0,3.380869446E0,1.889071655E0,-2.107617188E-1,3.878568090E0
8.474270417E0,2.765948181E0,1.336570587E0,3.481759644E-1,3.091620413E0
8.484255417E0,2.176174622E0,1.057850189E0,9.933343506E-1,2.615625382E0
8.494241417E0,1.681902466E0,5.475613403E-1,1.087638245E0,2.076433547E0
8.504226417E0,1.219963074E0,2.760260010E-1,1.221010895E0,1.747961058E0
8.514212417E0,1.179098053E0,-8.637039185E-2,1.474583588E0,1.890007624E0
8.524197417E0,1.500928802E0,-2.866539001E-1,1.545386353E0,2.173287074E0
8.534183417E0,1.883233795E0,-7.903564453E-2,1.268462219E0,2.271962271E0
8.544168417E0,2.233804779E0,1.320254517E-1,1.055904236E0,2.474317737E0
8.554154417E0,2.652035065E0,3.077600098E-1,7.728428650E-1,2.779441005E0
8.564139417E0,3.022814026E0,2.436932373E-1,8.678952026E-1,3.154367308E0
8.574125417E0,2.780467987E0,2.814147949E-1,1.048868866E0,2.985016317E0
8.584110417E0,2.674338684E0,2.284249878E-1,5.587879944E-1,2.741625320E0
8.594096417E0,2.032922516E0,3.508703613E-1,-8.098159790E-2,2.064568232E0
8.604081417E0,5.053491211E-1,1.337468719E0,-5.179229736E-2,1.430693102E0
8.614067417E0,-3.121009827E-1,1.823358307E0,2.276765442E-1,1.863834528E0
8.624053417E0,-3.610491943E-1,1.386566620E0,2.707868958E-1,1.458166333E0
8.634038417E0,-4.796026611E-1,7.331753540E-1,4.891827393E-1,1.003426412E0
8.644024417E0,-2.865042114E-1,-5.188211060E-1,4.315525818E-1,7.331423013E-1
8.654009417E0,-7.768844604E-2,-1.185085602E0,2.014810181E-1,1.204598680E0
8.663995417E0,-6.930587769E-2,-8.222401428E-1,-2.160008240E-1,8.529586819E-1
8.673980417E0,5.800437927E-1,-1.082249451E0,-9.728269958E-1,1.566558980E0
8.683966417E0,1.870360565E0,-2.683918762E0,-2.014061737E0,3.841628983E0
8.693951417E0,3.362607422E0,-6.333030396E0,-3.748055878E0,8.090879157E0
8.703937417E0,5.463039551E0,-1.266201920E1,-4.911436615E0,1.463877525E1
8.713922417E0,7.915689240E0,-1.932511322E1,-4.303251343E0,2.132219757E1
8.723908417E0,9.698631592E0,-2.230317032E1,-1.075363770E0,2.434442992E1
8.733893417E0,1.156300461E1,-2.194466583E1,2.112107849E0,2.489442575E1
8.743879417E0,1.443148956E1,-2.314636688E1,2.486778717E0,2.738989338E1
8.753864417E0,1.634466110E1,-2.586201965E1,2.336341553E0,3.068306534E1
8.763850417E0,1.792462555E1,-2.819566681E1,2.654280396E0,3.351616076E1
8.773835417E0,1.861678619E1,-2.550875427E1,4.108356628E0,3.184587676E1
8.783821417E0,1.955997482E1,-2.049867279E1,4.722529449E0,2.872438834E1
8.793806417E0,2.033521271E1,-1.721614883E1,3.785028992E0,2.691176510E1
8.803792417E0,1.953767120E1,-1.551508621E1,2.606380005E0,2.508449148E1
8.813777417E0,1.773975998E1,-1.500015701E1,1.434317322E0,2.327576123E1
8.823763417E0,1.557645859E1,-1.410816193E1,5.014572144E-1,2.102183994E1
8.833748417E0,1.353066284E1,-1.250858826E1,-1.763333130E-1,1.842755303E1
8.843734417E0,1.150357819E1,-1.077219910E1,-7.952961731E-1,1.577989482E1
8.853719417E0,9.315877533E0,-9.193282471E0,-1.216071167E0,1.314461281E1
8.863705417E0,7.280559998E0,-7.940687256E0,-1.804497528E0,1.092324491E1
8.873690417E0,5.778134308E0,-6.712790680E0,-2.561623077E0,9.220103448E0
8.883676417E0,4.558769989E0,-5.686075745E0,-2.908751221E0,7.846953221E0
8.893661417E0,3.434607697E0,-5.034480743E0,-2.797233124E0,6.705746754E0
8.903647417E0,2.477348328E0,-4.571792908E0,-2.623294830E0,5.824106875E0
8.913632417E0,1.736538849E0,-4.135749664E0,-2.413131866E0,5.093446560E0
8.923618417E0,1.243164825E0,-3.617826691E0,-2.112706604E0,4.370086720E0
8.933603417E0,8.819659424E-1,-3.205284576E0,-1.729054413E0,3.747177912E0
8.943589417E0,5.236111450E-1,-2.883603516E0,-1.060694275E0,3.116794862E0
8.953574417E0,1.285826111E-1,-2.264790344E0,-2.231858826E-1,2.279390429E0
8.963560417E0,3.273692322E-1,-1.845512238E0,3.583547974E-1,1.908272568E0
8.973545417E0,7.696994019E-1,-1.925745392E0,5.626799011E-1,2.148846471E0
8.983531417E0,9.812095642E-1,-1.991608429E0,7.255412292E-1,2.335741086E0
8.993516417E0,1.291214905E0,-2.276765442E0,7.587721252E-1,2.725184754E0
9.003502417E0,1.851350098E0,-3.150049438E0,2.894979858E-1,3.665258208E0
9.013487417E0,1.916764069E0,-3.861370239E0,-2.140548706E-2,4.310988612E0
9.023473417E0,2.148931274E0,-4.489314423E0,-4.601431274E-1,4.998357861E0
9.033459417E0,2.824626160E0,-5.513634338E0,-9.789642334E-1,6.271925345E0
9.043444417E0,3.944148102E0,-7.698191528E0,-1.899400177E0,8.855855582E0
9.053430417E0,5.115761719E0,-1.097547638E1,-2.491119690E0,1.236275766E1
9.063415417E0,6.000571747E0,-1.355925339E1,-1.830543365E0,1.494025109E1
9.073401417E0,7.376809845E0,-1.488669296E1,-8.967851257E-1,1.663836454E1
9.083386417E0,9.308692474E0,-1.515119293E1,2.182461548E-1,1.778364513E1
9.093372417E0,1.099523529E1,-1.456591003E1,1.043480072E0,1.827976436E1
9.103357417E0,1.164054337E1,-1.329879501E1,1.455573120E0,1.773355271E1
9.113343417E0,1.131077911E1,-1.160386963E1,1.675465851E0,1.629081644E1
9.123328417E0,1.046503784E1,-9.592651978E0,1.979483643E0,1.433367868E1
9.133314417E0,9.270671539E0,-7.625742188E0,2.297272797E0,1.222189662E1
9.143299417E0,7.779173126E0,-6.163133698E0,2.002386017E0,1.012468771E1
9.153285417E0,6.163732452E0,-5.486091614E0,1.094523926E0,8.323868185E0
9.163270417E0,4.662653961E0,-5.278024292E0,1.944456482E-1,7.045260215E0
9.173256417E0,3.521726532E0,-5.423072662E0,3.233276367E-2,6.466322005E0
9.183241417E0,2.734363861E0,-5.677543488E0,2.414479065E-1,6.306309766E0
9.193227417E0,2.342179413E0,-5.856870575E0,8.831634521E-3,6.307837611E0
9.203212417E0,2.220332794E0,-6.422244873E0,-7.164102173E-1,6.832887422E0
9.213198417E0,2.211800537E0,-7.206314392E0,-1.560504913E0,7.697935068E0
9.223183417E0,2.383942566E0,-7.818092194E0,-2.568508759E0,8.567554199E0
9.233169417E0,2.869383087E0,-8.273445282E0,-3.201991425E0,9.323947942E0
9.243154417E0,3.958667908E0,-8.876541138E0,-3.316652985E0,1.026957746E1
9.253140417E0,5.479056244E0,-9.845027161E0,-3.510948944E0,1.180132957E1
9.263125417E0,6.535110168E0,-1.019020935E1,-3.065325623E0,1.248776412E1
9.273111417E0,7.070696411E0,-1.000175125E1,-2.176324310E0,1.244050495E1
9.283096417E0,7.538473663E0,-9.658814392E0,-1.031355286E0,1.229572992E1
9.293082417E0,7.763904877E0,-9.383536835E0,-1.122665405E-2,1.217904383E1
9.303067417E0,7.748187561E0,-9.149573364E0,8.243357849E-1,1.201784643E1
9.313053417E0,7.834857330E0,-8.920848999E0,1.516945496E0,1.196944693E1
9.323038417E0,7.540419617E0,-8.638835449E0,2.254611511E0,1.168634584E1
9.333024417E0,6.927294617E0,-8.410709839E0,2.621947632E0,1.120723249E1
9.343009542E0,6.396199036E0,-8.109685822E0,2.451003113E0,1.061535598E1
9.352995542E0,5.842051392E0,-7.825876007E0,1.802701263E0,9.930943137E0
9.362980542E0,5.226980438E0,-7.865393829E0,8.922944641E-1,9.485880771E0
9.372966542E0,4.608766022E0,-8.015681305E0,1.008901978E-1,9.246731847E0
9.382951542E0,4.218228149E0,-8.136929169E0,-4.661306763E-1,9.177164204E0
9.392937542E0,4.048181763E0,-8.346493378E0,-8.608598328E-1,9.316265719E0
9.402922542E0,3.766916656E0,-8.469687195E0,-1.168021088E0,9.342886895E0
9.412908542E0,3.444487152E0,-8.566835175E0,-1.583107910E0,9.368104787E0
9.422893542E0,3.543730774E0,-8.686137085E0,-1.723216553E0,9.538159180E0
9.432879542E0,3.977528687E0,-8.428971863E0,-1.376986542E0,9.421485714E0
9.442864542E0,4.511767731E0,-8.275391235E0,-9.636959839E-1,9.474537356E0
9.452850542E0,5.039869537E0,-8.364755402E0,-5.397775269E-1,9.780632784E0
9.462835542E0,5.354066162E0,-8.328381042E0,2.469863892E-2,9.900937596E0
9.472821542E0,5.751190338E0,-8.276439056E0,4.067042542E-1,1.008667647E1
9.482806542E0,6.259982300E0,-8.273894348E0,6.159690857E-1,1.039346545E1
9.492792542E0,6.328689423E0,-8.043373718E0,8.183482361E-1,1.026732022E1
9.502777542E0,6.147266693E0,-7.890242157E0,6.975494385E-1,1.002653401E1
9.512763542E0,5.894741821E0,-7.978109436E0,3.707789612E-1,9.926514411E0
9.522749542E0,5.511389008E0,-8.029602356E0,1.945953369E-2,9.739111944E0
9.532734542E0,5.202581177E0,-8.065677338E0,-1.303788757E-1,9.598906212E0
9.542720542E0,4.908742218E0,-8.059540100E0,-1.568737793E-1,9.438037199E0
9.552705542E0,4.868026886E0,-8.426127777E0,-6.105802917E-1,9.750390934E0
9.562691542E0,4.883594513E0,-8.403674469E0,-7.171586609E-1,9.746053380E0
9.572676542E0,4.754413147E0,-8.128396912E0,-4.691244507E-1,9.428433511E0
9.582662542E0,4.594545593E0,-8.100704498E0,-4.020639038E-1,9.321637086E0
9.592647542E0,4.452640686E0,-8.352031860E0,-5.382806396E-1,9.480094479E0
9.602633542E0,4.444407806E0,-8.342601471E0,-3.147953796E-1,9.457846276E0
9.612618542E0,4.583019562E0,-8.644523621E0,-4.782554626E-1,9.795947387E0
9.622604542E0,4.908742218E0,-8.717571716E0,-6.384223938E-1,1.002493840E1
9.632589542E0,5.200036469E0,-8.414152679E0,-4.053570557E-1,9.899629232E0
9.642575542E0,5.347779236E0,-8.358019409E0,-2.706372070E-1,9.926151102E0
9.652560542E0,5.535339203E0,-8.421188049E0,-2.264790344E-1,1.008006354E1
9.662546542E0,5.669609985E0,-8.395740967E0,-1.333726501E-1,1.013166976E1
9.672531542E0,5.663622437E0,-8.448281708E0,-9.909393311E-2,1.017152410E1
9.682517542E0,5.461692352E0,-8.620573425E0,-1.231938171E-1,1.020585843E1
9.692502542E0,5.393883362E0,-8.563691711E0,-1.541793823E-1,1.012198423E1
9.702488542E0,5.492228851E0,-8.474028168E0,-2.338137817E-1,1.010091085E1
9.712473542E0,5.476062469E0,-8.400830383E0,-2.245330811E-1,1.003053470E1
9.722459542E0,5.265749817E0,-8.368198242E0,-2.662962341E-1,9.890691414E0
9.732444542E0,4.965623932E0,-8.413703613E0,-4.224215698E-1,9.778868519E0
9.742430542E0,4.787194977E0,-8.430319061E0,-5.846841431E-1,9.712330862E0
9.752415542E0,4.695585480E0,-8.451425171E0,-6.007008362E-1,9.686895886E0
9.762401542E0,4.756957855E0,-8.436007233E0,-5.342390442E-1,9.699498823E0
9.772386542E0,4.900659027E0,-8.426277466E0,-4.849914551E-1,9.759806737E0
9.782372542E0,4.779710541E0,-8.424481201E0,-4.649331665E-1,9.697096432E0
9.792357542E0,4.496349792E0,-8.457113342E0,-5.180726624E-1,9.592097103E0
9.802343542E0,4.366569672E0,-8.425229645E0,-6.122268677E-1,9.509271634E0
9.812328542E0,4.439617767E0,-8.307274933E0,-6.761439514E-1,9.443420639E0
9.822314542E0,4.600982208E0,-8.249644775E0,-6.551875305E-1,9.468629621E0
9.832299542E0,4.825066223E0,-8.306227112E0,-6.036946106E-1,9.624921822E0
9.842285542E0,4.971761169E0,-8.316405945E0,-5.354365540E-1,9.704004806E0
9.852270542E0,5.063819733E0,-8.275391235E0,-4.854405212E-1,9.713908733E0
9.862256542E0,5.122797089E0,-8.182284851E0,-4.067042542E-1,9.662206981E0
9.872241542E0,5.121898956E0,-8.104446716E0,-1.920506287E-1,9.589201684E0
9.882227542E0,4.983436890E0,-8.589438171E0,-6.436614990E-1,9.951250748E0
9.892212542E0,4.615352325E0,-8.881780243E0,-9.235794067E-1,1.005189019E1
9.902198542E0,4.522395630E0,-8.939560089E0,-9.250762939E-1,1.006099215E1
9.912183542E0,4.818030853E0,-8.943451996E0,-8.500822449E-1,1.019418436E1
9.922169542E0,5.082231445E0,-8.740923157E0,-7.304809570E-1,1.013737720E1
9.932154542E0,5.290598145E0,-8.269703064E0,-6.321354675E-1,9.837581651E0
9.942140542E0,5.434149628E0,-7.818391571E0,-5.905220032E-1,9.539703621E0
9.952125542E0,5.236710205E0,-7.494914246E0,-5.626799011E-1,9.160430230E0
9.962111542E0,4.633015594E0,-7.430847473E0,-5.346881104E-1,8.773153312E0
9.972096542E0,3.939208374E0,-7.574099579E0,-5.981561279E-1,8.558162057E0
9.982082542E0,3.537294159E0,-7.571405182E0,-5.454656982E-1,8.374733382E0
9.992067542E0,3.486998749E0,-7.467521210E0,-3.441343689E-1,8.248724856E0
1.000205354E1,3.617976379E0,-7.302414551E0,-1.609153748E-1,8.151129070E0
1.001203854E1,3.772904205E0,-7.059020691E0,-4.610412598E-2,8.004167967E0
1.002202454E1,3.963757324E0,-6.786287842E0,-4.071533203E-2,7.859181416E0
1.003200954E1,3.889811096E0,-6.500083008E0,-3.323089600E-2,7.575144472E0
1.004199554E1,3.169808350E0,-6.100414124E0,4.490661621E-2,6.874936658E0
1.005198054E1,2.417023773E0,-5.704337769E0,-9.116043091E-2,6.195948961E0
1.006196654E1,1.888472900E0,-5.098846893E0,-2.414479065E-1,5.442689283E0
1.007195154E1,1.485660553E0,-4.414020996E0,-2.293231201E-1,4.662977346E0
1.008193754E1,1.223405914E0,-3.804937592E0,-1.838177490E-1,4.001007507E0
1.009192354E1,1.132544861E0,-3.291804657E0,-1.540296936E-1,3.484589059E0
1.010190854E1,1.030157776E0,-3.010539551E0,-2.302212524E-1,3.190231223E0
1.011189354E1,9.373507690E-1,-3.139571228E0,-3.800596619E-1,3.298481364E0
1.012187954E1,9.544152832E-1,-3.581602020E0,-5.288502502E-1,3.744123950E0
1.013186454E1,1.518442383E0,-4.353247375E0,-8.955876160E-1,4.696648503E0
1.014185054E1,2.934198303E0,-5.973328400E0,-1.638642426E0,6.853854452E0
1.015183554E1,4.974006500E0,-8.600814514E0,-2.214494934E0,1.017932899E1
1.016182154E1,7.497309265E0,-1.216310669E1,-2.491568756E0,1.450374867E1
1.017180754E1,9.903256073E0,-1.632071091E1,-2.165097656E0,1.921269719E1
1.018179254E1,1.187300995E1,-1.950818253E1,-1.074315948E0,2.286245187E1
1.019177854E1,1.421459061E1,-2.178689392E1,-4.007167053E-1,2.601699265E1
1.020176354E1,1.667502411E1,-2.309277832E1,-2.405497742E-1,2.848492064E1
1.021174954E1,1.873818375E1,-2.303050781E1,2.136058044E-1,2.969123520E1
1.022173454E1,2.008523254E1,-2.270703049E1,6.256988525E-2,3.031550288E1
1.023172054E1,1.970741821E1,-2.313484085E1,-5.840853882E-1,3.039645291E1
1.024170554E1,1.747091904E1,-2.403866135E1,-1.121018829E0,2.973797126E1
1.025169154E1,1.525268188E1,-2.500744675E1,-1.363364868E0,2.932363315E1
1.026167654E1,1.379875534E1,-2.573972397E1,-9.060658264E-1,2.921917169E1
1.027166254E1,1.298130524E1,-2.563778595E1,-8.891510010E-2,2.873705378E1
1.028164754E1,1.222447906E1,-2.476435226E1,1.060394897E0,2.763757350E1
1.029163354E1,1.142948227E1,-2.260194901E1,1.903890839E0,2.539893628E1
1.030161854E1,1.082967957E1,-1.952360046E1,2.080373840E0,2.242277614E1
1.031160454E1,9.506880341E0,-1.593511276E1,1.626817017E0,1.862673149E1
1.032158954E1,7.329957275E0,-1.170251450E1,9.244775391E-1,1.383950064E1
1.033157554E1,4.901108093E0,-7.252568207E0,6.002517700E-1,8.773876471E0
1.034156079E1,2.704126740E0,-3.029999084E0,4.926255798E-1,4.090950481E0
1.035154679E1,1.088835754E0,4.541555786E-1,3.739224243E-1,1.237593863E0
1.036153179E1,-4.490661621E-2,2.786904602E0,1.053808594E-1,2.789257785E0
1.037151779E1,-1.129551086E0,3.695814514E0,-6.635700989E-1,3.921129411E0
1.038150279E1,-2.776875458E0,3.241509247E0,-1.896406403E0,4.670629160E0
1.039148879E1,-4.538861389E0,2.127076721E0,-3.230132904E0,5.963176726E0
1.040147379E1,-5.244943085E0,1.134640503E0,-3.973187714E0,6.677054563E0
1.041145979E1,-4.777914276E0,6.442602539E-1,-3.989653473E0,6.257864727E0
1.042144479E1,-3.742667084E0,1.679507446E-1,-3.551215210E0,5.162062942E0
1.043143079E1,-2.621199188E0,-2.610571289E-1,-2.789149933E0,3.836429767E0
1.044141579E1,-1.731748810E0,-5.396278381E-1,-1.710642700E0,2.493281090E0
1.045140179E1,-1.085841980E0,-3.387455750E-1,-5.122348022E-1,1.247471788E0
1.046138679E1,-6.135740662E-1,-4.131408691E-2,4.784051514E-1,7.791350828E-1
1.047137279E1,2.682421875E-1,-9.894424438E-2,9.560618591E-1,9.978968449E-1
1.048135779E1,7.393125916E-1,3.143463135E-3,1.302890625E0,1.498037707E0
1.049134379E1,1.024619293E0,6.825805664E-2,1.594633942E0,1.896671101E0
1.050132879E1,1.493594055E0,-7.514373779E-2,1.609902191E0,2.197329026E0
1.051131479E1,1.971101074E0,-2.577639771E-1,1.548230438E0,2.519662518E0
1.052129979E1,2.383343811E0,-4.948709106E-1,1.433119812E0,2.824722524E0
1.053128579E1,2.531835022E0,-5.342390442E-1,1.226100311E0,2.863375963E0
1.054127079E1,2.230960693E0,-1.704954529E-1,4.167333984E-1,2.275943989E0
1.055125679E1,2.265987854E0,1.531315613E-1,-3.553610229E-1,2.298789178E0
1.056124179E1,2.093845825E0,4.860392761E-1,-7.896080017E-1,2.289957492E0
1.057122779E1,1.605411530E0,7.095245361E-1,-1.079255676E0,2.060476659E0
1.058121279E1,1.038390656E0,5.243595886E-1,-1.115480347E0,1.611677553E0
1.059119879E1,4.608915710E-1,2.128573608E-1,-1.038690033E0,1.156116898E0
1.060118379E1,4.026626587E-2,9.131011963E-2,-1.174158325E0,1.178391566E0
1.061116979E1,-3.143463135E-1,-6.137237549E-3,-1.436712341E0,1.470711944E0
1.062115479E1,-4.984634399E-1,-1.398092651E-1,-1.542542267E0,1.627098361E0
1.063114079E1,-4.665797424E-1,-3.124003601E-1,-1.434766388E0,1.540728798E0
1.064112579E1,-3.219804382E-1,-4.324507141E-1,-1.065933380E0,1.194528775E0
1.065111179E1,-1.251397705E-1,-6.048921204E-1,-4.878355408E-1,7.871073334E-1
1.066109679E1,4.195774841E-1,-9.226812744E-1,1.796264648E-2,1.013759664E0
1.067108279E1,1.147962799E0,-1.712289276E0,4.797523499E-1,2.116581081E0
1.068106779E1,2.127974854E0,-4.213887177E0,7.274871826E-2,4.721272550E0
1.069105379E1,3.441792755E0,-8.077203369E0,-1.702260132E0,8.943424467E0
1.070103879E1,6.162834320E0,-1.422940979E1,-3.951782227E0,1.600228773E1
1.071102479E1,8.012388153E0,-2.013223480E1,-4.066743164E0,2.204639748E1
1.072100979E1,9.490115204E0,-2.222533218E1,-2.720143433E0,2.431926926E1
1.073099579E1,1.209020828E1,-2.103261246E1,-2.268233185E0,2.436573013E1
1.074098079E1,1.532917282E1,-2.114038834E1,-2.796484680E0,2.626251863E1
1.075096679E1,1.610111755E1,-2.315295319E1,-1.943708038E0,2.826806022E1
1.076095179E1,1.640768005E1,-2.635704025E1,-1.117725677E0,3.106694137E1
1.077093779E1,1.636935974E1,-2.899320831E1,1.348695374E-1,3.329534887E1
1.078092279E1,1.536899002E1,-2.778342407E1,2.795586548E0,3.187381075E1
1.079090879E1,1.515014511E1,-2.394196243E1,5.025948486E0,2.877506942E1
1.080089379E1,1.531121017E1,-1.975412109E1,5.522465973E0,2.559601703E1
1.081087979E1,1.492770767E1,-1.709505066E1,4.570296021E0,2.315091400E1
1.082086479E1,1.340941498E1,-1.575578568E1,3.105142822E0,2.092125962E1
1.083085079E1,1.148067581E1,-1.451711151E1,1.677411804E0,1.858402954E1
1.084083579E1,9.975705414E0,-1.305300613E1,1.480421448E-1,1.642916870E1
1.085082179E1,8.742420044E0,-1.148322052E1,-1.235830078E0,1.448521790E1
1.086080679E1,7.469317474E0,-9.925709381E0,-2.191592560E0,1.261401951E1
1.087079279E1,6.123466187E0,-8.555907898E0,-2.893782349E0,1.091212053E1
1.088077779E1,5.062771912E0,-7.330256653E0,-3.394640808E0,9.533514999E0
1.089076379E1,4.499044189E0,-6.100863190E0,-3.544179840E0,8.367983091E0
1.090074879E1,4.192481689E0,-5.048701172E0,-3.417692871E0,7.399115542E0
1.091073479E1,3.698508911E0,-4.143683167E0,-3.085383911E0,6.353634568E0
1.092071979E1,3.075055389E0,-3.368594971E0,-2.612068176E0,5.256072477E0
1.093070579E1,2.500101013E0,-2.904410248E0,-2.075284424E0,4.358085520E0
1.094069079E1,2.050286407E0,-2.559078369E0,-1.528621216E0,3.617905371E0
1.095067679E1,1.776206360E0,-2.169887695E0,-1.191971283E0,3.046984933E0
1.096066179E1,1.592238922E0,-1.802252197E0,-1.028960266E0,2.615740239E0
1.097064779E1,1.500629425E0,-1.496288452E0,-7.545808411E-1,2.249479951E0
1.098063279E1,1.543889465E0,-1.388662262E0,-3.808081055E-1,2.111159012E0
1.099061879E1,1.764979706E0,-1.450034637E0,-1.493893433E-1,2.289120134E0
1.100060379E1,1.906734924E0,-1.543739777E0,-1.338217163E-1,2.456965368E0
1.101058979E1,2.084714813E0,-1.745969238E0,-3.480262756E-1,2.741453396E0
1.102057479E1,2.264790344E0,-2.089953918E0,-7.333250427E-1,3.167798653E0
1.103056079E1,2.383643188E0,-2.607427826E0,-1.048569489E0,3.685096022E0
1.104054579E1,2.526595917E0,-3.473676453E0,-9.898915100E-1,4.407947394E0
1.105053179E1,2.796784058E0,-4.627177734E0,-8.330177307E-1,5.470529535E0
1.106051679E1,3.477867737E0,-5.864355011E0,-8.340655518E-1,6.868907412E0
1.107050279E1,4.717739410E0,-7.681276703E0,-1.157393188E0,9.088379169E0
1.108048779E1,6.132746887E0,-1.032612671E1,-1.528321838E0,1.210682637E1
1.109047379E1,6.961723022E0,-1.308084824E1,-1.283580780E0,1.487352539E1
1.110045879E1,7.933502197E0,-1.540760971E1,-9.975256348E-1,1.735885801E1
1.111044479E1,9.504335632E0,-1.659568909E1,-4.971162415E-1,1.913103282E1
1.112042979E1,1.166793640E1,-1.666589310E1,2.811154175E-1,2.034629594E1
1.113041579E1,1.346719482E1,-1.556972260E1,1.126856689E0,2.061677482E1
1.114040079E1,1.404858582E1,-1.326257034E1,1.691781921E0,1.939383050E1
1.115038679E1,1.357377319E1,-1.005623795E1,1.945653992E0,1.700472904E1
1.116037179E1,1.264360748E1,-7.120093689E0,1.745071106E0,1.461512290E1
1.117035779E1,1.129715744E1,-5.024601288E0,1.135987701E0,1.241623342E1
1.118034279E1,9.637558594E0,-4.066593475E0,5.499563599E-1,1.047483509E1
1.119032879E1,7.418572998E0,-4.395758972E0,1.128652954E-1,8.623842580E0
1.120031479E1,5.324278107E0,-5.437742157E0,2.671943665E-1,7.615009518E0
1.121029979E1,3.550915833E0,-6.111491089E0,9.060658264E-1,7.126028477E0
1.122028579E1,1.894161072E0,-6.391558685E0,1.082997894E0,6.753721421E0
1.123027079E1,1.308578796E0,-6.736142120E0,1.815724182E-1,6.864470677E0
1.124025579E1,1.596579895E0,-7.258555756E0,-1.063688049E0,7.507804691E0
1.125024179E1,2.157912598E0,-7.603737946E0,-2.135159912E0,8.187327120E0
1.126022779E1,2.596051483E0,-7.707472229E0,-3.024011536E0,8.676938241E0
1.127021279E1,3.074756012E0,-8.005652161E0,-3.873195648E0,9.409900934E0
1.128019879E1,3.722908173E0,-8.407566376E0,-4.239034882E0,1.012504984E1
1.129018379E1,4.593946838E0,-8.835077362E0,-3.810027008E0,1.066204696E1
1.130016979E1,5.420378265E0,-9.639354858E0,-3.507356415E0,1.160169003E1
1.131015479E1,6.001469879E0,-9.984387360E0,-2.586321716E0,1.193292469E1
1.132014079E1,6.462960205E0,-9.683213654E0,-1.106648712E0,1.169440690E1
1.133012579E1,6.879992981E0,-9.404493256E0,-3.323089600E-2,1.165246331E1
1.134011154E1,7.135361938E0,-8.844507751E0,8.812174988E-1,1.139803718E1
1.135009654E1,7.340585175E0,-8.074059906E0,1.447190552E0,1.100767889E1
1.136008254E1,7.420668640E0,-7.459587708E0,1.642534332E0,1.064939862E1
1.137006754E1,7.264842682E0,-7.056026917E0,1.606309662E0,1.025405704E1
1.138005354E1,6.786138153E0,-6.846313019E0,1.298100586E0,9.726702325E0
1.139003854E1,6.274502106E0,-6.876999207E0,7.270381165E-1,9.337616355E0
1.140002454E1,5.986950073E0,-6.857539673E0,3.608995056E-1,9.110415468E0
1.141000954E1,5.776787109E0,-6.896907806E0,-1.945953369E-3,8.996588819E0
1.141999554E1,5.680986328E0,-7.096742249E0,-3.064128113E-1,9.095671774E0
1.142998054E1,5.614973602E0,-7.427254944E0,-5.429209900E-1,9.326671848E0
1.143996654E1,5.502407684E0,-7.784412231E0,-8.500822449E-1,9.570590574E0
1.144995154E1,5.542973328E0,-8.021070099E0,-1.100960541E0,9.811943383E0
1.145993754E1,5.906716919E0,-8.191415863E0,-1.244212646E0,1.017529674E1
1.146992254E1,6.302044830E0,-8.415799255E0,-1.171164551E0,1.057889751E1
1.147990854E1,6.566245422E0,-8.452472992E0,-9.279203796E-1,1.074341263E1
1.148989354E1,6.705455933E0,-8.313112793E0,-7.197033691E-1,1.070462314E1
1.149987954E1,6.932084656E0,-8.207432556E0,-6.056405640E-1,1.076022989E1
1.150986454E1,6.944508820E0,-8.120014343E0,-5.038522339E-1,1.069648086E1
1.151985054E1,6.864125977E0,-7.861651611E0,-3.233276367E-1,1.044156752E1
1.152983554E1,6.951693878E0,-7.524103546E0,-1.576222229E-1,1.024514650E1
1.153982154E1,7.023245087E0,-7.300618286E0,-9.235794067E-2,1.013082074E1
1.154980654E1,7.025640106E0,-7.162006531E0,-7.484436035E-2,1.003292371E1
1.155979254E1,6.891069946E0,-7.105723572E0,-1.050814819E-1,9.898949167E0
1.156977754E1,6.584956512E0,-7.149582367E0,-1.839674377E-1,9.721729492E0
1.157976354E1,6.247408447E0,-7.213499451E0,-2.085163879E-1,9.545059754E0
1.158974854E1,5.898034973E0,-7.325765991E0,-2.546205139E-1,9.408426835E0
1.159973454E1,5.498665466E0,-7.439379730E0,-3.775149536E-1,9.258628960E0
1.160971954E1,5.164709930E0,-7.498806152E0,-4.846920776E-1,9.118182318E0
1.161970554E1,4.934189301E0,-7.586074677E0,-5.634283447E-1,9.067094604E0
1.162969054E1,4.824617157E0,-7.661966858E0,-5.447172546E-1,9.070798406E0
1.163967654E1,4.770579529E0,-7.764353943E0,-4.161346436E-1,9.122323675E0
1.164966154E1,4.747826843E0,-7.880213013E0,-1.053808594E-1,9.200582698E0
1.165964754E1,4.975503387E0,-8.225993958E0,4.079017639E-1,9.622317517E0
1.166963254E1,5.097649384E0,-8.888516235E0,9.732760620E-1,1.029266809E1
1.167961854E1,5.041516113E0,-9.282496948E0,1.482217712E0,1.066670538E1
1.168960354E1,5.045857086E0,-9.370064850E0,1.250050507E0,1.071547550E1
1.169958954E1,5.119054871E0,-9.011410675E0,5.707630920E-1,1.037959612E1
1.170957454E1,5.152585144E0,-8.293054504E0,-9.310638428E-2,9.763839177E0
1.171956054E1,5.294340363E0,-7.780969391E0,-8.442443848E-1,9.449141396E0
1.172954554E1,5.496869202E0,-7.513924713E0,-1.472338257E0,9.425625473E0
1.173953154E1,5.719456329E0,-7.427404633E0,-1.908830566E0,9.566721194E0
1.174951654E1,6.014043732E0,-7.404352570E0,-1.895059204E0,9.725451577E0
1.175950254E1,6.326593781E0,-7.538024597E0,-1.594334564E0,9.969428589E0
1.176948754E1,6.705455933E0,-7.738607483E0,-1.188378754E0,1.030831844E1
1.177947354E1,7.060218201E0,-7.830516357E0,-7.120692444E-1,1.056743631E1
1.178945854E1,7.257058868E0,-7.957452393E0,-3.487747192E-1,1.077532347E1
1.179944454E1,7.242838440E0,-7.969277802E0,-9.445358276E-2,1.076926269E1
1.180942954E1,7.162754974E0,-7.918982391E0,7.140151978E-2,1.067803536E1
1.181941554E1,7.067403259E0,-7.851772156E0,1.463955688E-1,1.056503414E1
1.182940054E1,6.958280182E0,-7.687114563E0,1.311273193E-1,1.036950277E1
1.183938654E1,6.718179474E0,-7.564669189E0,-4.745132446E-2,1.011733201E1
1.184937154E1,6.157744904E0,-7.540269928E0,-2.064207458E-1,9.737356028E0
1.185935754E1,5.701044617E0,-7.497758331E0,-3.204835510E-1,9.424489345E0
1.186934254E1,5.484894104E0,-7.358847198E0,-3.643423462E-1,9.185283924E0
1.187932854E1,5.220992889E0,-7.252268829E0,-4.022135925E-1,8.945163257E0
1.188931354E1,5.021008759E0,-7.143295441E0,-4.393363953E-1,8.742437599E0
1.189929954E1,4.844974823E0,-6.975793762E0,-4.715194702E-1,8.506339416E0
1.190928454E1,4.640649719E0,-6.678062897E0,-5.292993164E-1,8.149374923E0
1.191927054E1,4.660258942E0,-6.370153198E0,-4.822970581E-1,7.907558133E0
1.192925554E1,4.757406921E0,-6.005361786E0,-3.830534363E-1,7.670985643E0
1.193924154E1,4.916226654E0,-5.605094147E0,-1.989363098E-1,7.458280000E0
1.194922654E1,5.179678802E0,-5.293741608E0,8.966354370E-2,7.406808507E0
1.195921254E1,5.415288849E0,-5.034031677E0,6.372248840E-1,7.421110685E0
1.196919754E1,5.724096680E0,-4.786895599E0,1.307231598E0,7.575520228E0
1.197918354E1,6.038892059E0,-4.479584656E0,1.824555817E0,7.737176482E0
1.198916854E1,6.204896851E0,-4.085304565E0,2.119442596E0,7.725444663E0
1.199915454E1,5.845793610E0,-3.931873627E0,2.006726990E0,7.325290872E0
1.200913954E1,4.447251892E0,-3.857478333E0,1.846560059E0,6.169924840E0
1.201912554E1,2.791694641E0,-3.779939575E0,1.197360077E0,4.849244613E0
1.202911054E1,1.830543365E0,-3.538341980E0,8.622070312E-2,3.984744282E0
1.203909654E1,8.966354370E-1,-2.907254333E0,-7.370672607E-1,3.130391511E0
1.204908154E1,-2.100132751E-1,-3.171155548E0,-2.132315826E0,3.827153494E0
1.205906754E1,-2.204914856E-1,-4.441713409E0,-4.018244019E0,5.993639921E0
1.206905254E1,9.596543884E-1,-6.647975464E0,-4.645439758E0,8.166800160E0
1.207903854E1,2.617606659E0,-9.708511047E0,-3.708538055E0,1.071729004E1
1.208902354E1,5.027744751E0,-1.348216370E1,-2.274669800E0,1.456780965E1
1.209900954E1,7.665709076E0,-1.699490891E1,-3.258723450E-1,1.864661409E1
1.210899454E1,1.069391190E1,-1.890538605E1,1.553170166E0,2.177580563E1
1.211898054E1,1.411594574E1,-1.993359787E1,2.268083496E0,2.453064310E1
1.212896554E1,1.686542816E1,-2.150053940E1,2.222129059E0,2.741630389E1
1.213895154E1,1.875360168E1,-2.302931030E1,2.155218201E0,2.977736850E1
1.214893654E1,2.020408539E1,-2.345367783E1,2.343227234E0,3.104465789E1
1.215892254E1,2.057830719E1,-2.326866257E1,2.760858765E0,3.118524853E1
1.216890754E1,1.968421646E1,-2.252815247E1,3.353925476E0,3.010373477E1
1.217889354E1,1.792327835E1,-2.269535477E1,3.560046844E0,2.913755255E1
1.218887854E1,1.601145401E1,-2.320309891E1,3.581302643E0,2.841788499E1
1.219886454E1,1.450094513E1,-2.288935135E1,3.864813080E0,2.737035979E1
1.220884954E1,1.347393082E1,-2.189437042E1,3.327729950E0,2.592265524E1
1.221883554E1,1.190025330E1,-1.907782745E1,1.755848694E0,2.255354814E1
1.222882054E1,8.983718262E0,-1.444990128E1,1.837578735E0,1.711384049E1
1.223880654E1,6.425987091E0,-1.013422577E1,2.827170868E0,1.232837123E1
1.224879154E1,4.369862823E0,-6.157295837E0,4.085454254E0,8.584808069E0
1.225877754E1,3.325634308E0,-2.579585724E0,4.883594513E0,6.446983901E0
1.226876254E1,2.603984985E0,8.843609619E-1,5.186115417E0,5.870146952E0
1.227874854E1,2.042652283E0,3.834426270E0,4.767286377E0,6.449982369E0
1.228873354E1,1.901046753E0,4.780009918E0,3.238964539E0,6.078927937E0
1.229871954E1,1.110839996E0,4.577630768E0,1.139280853E0,4.846300631E0
1.230870454E1,-8.756790161E-2,3.931424561E0,-8.068222046E-1,4.014315543E0
1.231869054E1,-1.157842255E0,2.778522034E0,-1.961820374E0,3.592982404E0
1.232867554E1,-1.825753326E0,1.778002625E0,-2.038011932E0,3.263152031E0
1.233866183E1,-1.875749359E0,5.429209900E-1,-1.537153473E0,2.485163910E0
1.234864683E1,-1.241218872E0,-7.012916565E-1,-1.009201355E0,1.746688768E0
1.235863283E1,-3.737727356E-1,-1.277293854E0,-1.664538574E-1,1.341227995E0
1.236861783E1,3.884422302E-1,-1.155147858E0,8.494834900E-1,1.485555835E0
1.237860383E1,9.111552429E-1,-7.405101013E-1,1.376387787E0,1.809144114E0
1.238858883E1,1.322200470E0,-5.372328186E-1,1.272354126E0,1.911993255E0
1.239857483E1,1.532962189E0,-2.992277527E-1,7.707472229E-1,1.741712261E0
1.240855983E1,1.362466736E0,-2.799179077E-2,1.731898499E-1,1.373715353E0
1.241854583E1,1.214574280E0,5.269042969E-2,-4.318519592E-1,1.290140720E0
1.242853083E1,1.373394012E0,-1.673519897E-1,-9.029223633E-1,1.652115794E0
1.243851683E1,1.468446350E0,-4.011657715E-1,-1.241667938E0,1.964435779E0
1.244850183E1,1.630559235E0,-2.381547546E-1,-1.407972107E0,2.167447014E0
1.245848783E1,2.012564850E0,6.930587769E-2,-1.418001251E0,2.462914560E0
1.246847283E1,2.030228119E0,3.245251465E-1,-1.383722534E0,2.478271744E0
1.247845883E1,1.859732666E0,4.935237122E-1,-1.583706665E0,2.492046959E0
1.248844383E1,1.850451965E0,6.795867920E-1,-1.946252747E0,2.770182383E0
1.249842983E1,1.907932434E0,8.138575745E-1,-2.155218201E0,2.991243189E0
1.250841483E1,1.701661377E0,8.494834900E-1,-2.222428436E0,2.925143039E0
1.251840083E1,1.299597473E0,6.242019653E-1,-2.152972870E0,2.591114406E0
1.252838583E1,1.088985443E0,2.209405518E-1,-2.155966644E0,2.425468242E0
1.253837183E1,1.069076843E0,2.570155334E-1,-1.796264648E0,2.106074303E0
1.254835683E1,1.322200470E0,3.456312561E-1,-1.114133148E0,1.763226508E0
1.255834283E1,2.008223877E0,-2.350112915E-2,-6.932084656E-1,2.124630184E0
1.256832783E1,2.731968842E0,-6.114784241E-1,-8.846603394E-2,2.800961594E0
1.257831383E1,3.801794128E0,-1.756896515E0,6.716532898E-1,4.241632009E0
1.258829883E1,5.485492859E0,-4.377047882E0,1.018182678E0,7.091253488E0
1.259828483E1,8.771160278E0,-1.070648575E1,-1.047821045E-2,1.384059968E1
1.260826983E1,1.129581024E1,-1.973840378E1,-5.954617310E-1,2.274982390E1
1.261825583E1,1.205353455E1,-2.504367142E1,1.421743469E0,2.782974178E1
1.262824083E1,1.256966125E1,-2.274475204E1,3.824846191E0,2.626689129E1
1.263822683E1,1.627415771E1,-1.974094849E1,2.319426727E0,2.568916108E1
1.264821183E1,1.954276062E1,-2.116089569E1,-1.212478638E-2,2.880456815E1
1.265819783E1,2.133648056E1,-2.635599243E1,-2.352208557E0,3.399141987E1
1.266818283E1,2.161520096E1,-2.916550003E1,-2.362686768E0,3.637891688E1
1.267816883E1,2.120011414E1,-2.719469833E1,4.462220764E-1,3.448471503E1
1.268815383E1,2.004107437E1,-2.124651764E1,4.994364166E0,2.963111282E1
1.269813983E1,1.931119217E1,-1.636187531E1,6.813830566E0,2.621185597E1
1.270812483E1,1.788091644E1,-1.306812469E1,6.543941803E0,2.309385698E1
1.271811083E1,1.472981918E1,-1.127275818E1,5.321284332E0,1.929659859E1
1.272809583E1,1.065304688E1,-1.070409073E1,3.302881622E0,1.545878369E1
1.273808183E1,6.493347015E0,-1.028660889E1,1.032852173E0,1.220838488E1
1.274806683E1,2.848276978E0,-9.252110138E0,-7.608677673E-1,9.710465669E0
1.275805283E1,2.923420715E-1,-8.272547150E0,-2.490970001E0,8.644387299E0
1.276803783E1,-6.218069458E-1,-7.153773651E0,-3.908372498E0,8.175481448E0
1.277802383E1,-6.544390869E-1,-5.860313416E0,-4.667743378E0,7.520597854E0
1.278800883E1,-1.441502380E-1,-4.438120880E0,-4.695585480E0,6.462678952E0
1.279799483E1,1.769320679E-1,-3.380121002E0,-4.116739197E0,5.329546375E0
1.280797983E1,-1.815724182E-1,-2.867586823E0,-3.626508636E0,4.626833433E0
1.281796583E1,-2.315684509E-1,-2.580633545E0,-2.713856506E0,3.752107485E0
1.282795083E1,2.125579834E-1,-2.357148285E0,-1.680704956E0,2.902774205E0
1.283793683E1,6.084846497E-1,-2.083517303E0,-7.809260559E-1,2.306760375E0
1.284792183E1,8.575666809E-1,-1.751208344E0,1.017883301E-2,1.949937149E0
1.285790783E1,1.260678406E0,-1.745819550E0,7.161108398E-1,2.269363496E0
1.286789283E1,1.619332581E0,-1.891316986E0,1.117575989E0,2.729156287E0
1.287787883E1,1.840273132E0,-1.975591736E0,1.154549103E0,2.936418148E0
1.288786383E1,1.943708038E0,-2.069596252E0,8.834628296E-1,2.973505702E0
1.289784983E1,2.201022949E0,-2.752925262E0,2.773731995E-1,3.535538914E0
1.290783483E1,2.455344086E0,-4.008813629E0,-2.942880249E-1,4.710191794E0
1.291782083E1,2.881058807E0,-5.289400635E0,-6.608757019E-1,6.059291676E0
1.292780583E1,3.926634521E0,-7.115603027E0,-1.185834045E0,8.213188631E0
1.293779183E1,5.457650757E0,-1.019649628E1,-1.907333679E0,1.172145084E1
1.294777683E1,6.449039154E0,-1.309491898E1,-1.702260132E0,1.469573743E1
1.295776283E1,7.073091431E0,-1.431128952E1,-4.438270569E-1,1.596992838E1
1.296774783E1,8.590485992E0,-1.437161407E1,7.701484680E-1,1.676105216E1
1.297773383E1,1.075797867E1,-1.411624512E1,1.217568054E0,1.779002398E1
1.298771883E1,1.236518646E1,-1.365550323E1,1.501228180E0,1.848308121E1
1.299770483E1,1.312291077E1,-1.264211060E1,1.895957336E0,1.832016380E1
1.300768983E1,1.310060715E1,-1.087847809E1,2.245779877E0,1.717587612E1
1.301767583E1,1.261845978E1,-8.922495575E0,2.405647430E0,1.564044737E1
1.302766083E1,1.184397034E1,-7.221432953E0,2.472258911E0,1.409045036E1
1.303764683E1,1.081261505E1,-5.971681824E0,2.462978210E0,1.259523282E1
1.304763183E1,9.555080109E0,-5.468727722E0,2.199226685E0,1.122689346E1
1.305761783E1,7.904612274E0,-5.188959503E0,2.420167236E0,9.760399858E0
1.306760283E1,6.641987915E0,-5.294789429E0,2.438279572E0,8.837194455E0
1.307758883E1,5.588029633E0,-5.564977570E0,2.001637573E0,8.136436781E0
1.308757383E1,4.677323456E0,-5.638624420E0,1.263971558E0,7.434316657E0
1.309755983E1,4.042194214E0,-5.696104889E0,1.877096558E-1,6.987143900E0
1.310754483E1,3.618724823E0,-5.997428284E0,-8.729846191E-1,7.058783005E0
1.311753083E1,3.523073730E0,-6.229595490E0,-2.031275940E0,7.439488586E0
1.312751583E1,3.885021057E0,-6.619384918E0,-3.004701691E0,8.242443664E0
1.313750183E1,4.550686798E0,-7.108417969E0,-3.551963654E0,9.157226772E0
1.314748683E1,5.070855103E0,-7.568561096E0,-3.741918640E0,9.848788943E0
1.315747283E1,5.591771851E0,-8.027955780E0,-3.392694855E0,1.035501641E1
1.316745783E1,5.913901978E0,-8.461604004E0,-2.601889343E0,1.064625789E1
1.317744383E1,6.221811676E0,-8.940907288E0,-1.643731842E0,1.101601643E1
1.318742883E1,6.702761536E0,-9.142238617E0,-5.866300964E-1,1.135128513E1
1.319741483E1,7.187603302E0,-8.935967560E0,5.173242188E-1,1.147958108E1
1.320739983E1,7.502698059E0,-8.462801514E0,1.381177826E0,1.139373248E1
1.321738583E1,7.691455536E0,-7.968080292E0,1.973196716E0,1.124910206E1
1.322737083E1,7.722441101E0,-7.555987244E0,2.342778168E0,1.105520915E1
1.323735683E1,7.585326233E0,-7.276219025E0,2.562970276E0,1.081893497E1
1.324734183E1,7.300917664E0,-7.179819489E0,2.673290863E0,1.058299063E1
1.325732783E1,6.844367065E0,-7.200027466E0,2.646346893E0,1.028051107E1
1.326731283E1,6.492598572E0,-7.254813538E0,2.431393890E0,1.003483094E1
1.327729883E1,6.272705841E0,-7.283553772E0,2.136806488E0,9.846975987E0
1.328728383E1,6.130651245E0,-7.316634979E0,1.737586670E0,9.702434722E0
1.329726983E1,6.056405640E0,-7.493716736E0,1.322948914E0,9.725535133E0
1.330725483E1,5.988596649E0,-7.638166351E0,9.313632202E-1,9.750503191E0
1.331724083E1,6.017636261E0,-7.726033630E0,5.779481506E-1,9.810074714E0
1.332722583E1,6.136339417E0,-7.780969391E0,3.198847961E-1,9.914659469E0
1.333721183E1,6.275400238E0,-7.774083710E0,1.011895752E-1,9.991359517E0
1.334719704E1,6.607409821E0,-7.579488373E0,-1.001417542E-1,1.005567188E1
1.335718304E1,7.635471954E0,-7.103478241E0,-2.332150269E-1,1.043140567E1
1.336716804E1,8.877139893E0,-6.867119751E0,-5.081932068E-1,1.123473216E1
1.337715404E1,9.475296021E0,-7.167395325E0,-9.614506531E-1,1.191961316E1
1.338713904E1,9.514963531E0,-7.308701477E0,-9.964778137E-1,1.203929468E1
1.339712404E1,9.353000336E0,-7.246880035E0,-7.955955505E-1,1.185870388E1
1.340711004E1,8.981622620E0,-7.243137817E0,-5.260061646E-1,1.155029319E1
1.341709504E1,8.373287659E0,-7.311695251E0,-2.676434326E-1,1.111955335E1
1.342708104E1,7.714507599E0,-7.389832764E0,-3.053649902E-2,1.068289232E1
1.343706704E1,7.181765442E0,-7.379504242E0,2.606080627E-1,1.030061912E1
1.344705204E1,6.726562042E0,-7.317533112E0,5.168751526E-1,9.952893432E0
1.345703704E1,6.366261292E0,-7.328011322E0,6.804849243E-1,9.730986204E0
1.346702304E1,5.933361511E0,-7.330855408E0,8.972341919E-1,9.473713582E0
1.347700804E1,5.510490875E0,-7.225324860E0,1.202150116E0,9.166023888E0
1.348699404E1,5.355862427E0,-7.146738281E0,1.403780823E0,9.040560325E0
1.349698004E1,5.034630432E0,-6.986721039E0,1.331780548E0,8.714092832E0
1.350696504E1,4.734504547E0,-6.835834808E0,1.181343384E0,8.398794141E0
1.351695004E1,4.633314972E0,-6.663393402E0,1.032702484E0,8.181374804E0
1.352693604E1,4.742737427E0,-6.511459351E0,9.821076965E-1,8.115244710E0
1.353692104E1,4.925657043E0,-6.568341064E0,1.017134857E0,8.272832947E0
1.354690704E1,4.961282959E0,-6.691235504E0,1.211580505E0,8.417534585E0
1.355689204E1,5.081483002E0,-6.658902740E0,1.257235565E0,8.470129661E0
1.356687804E1,5.316494293E0,-6.524332581E0,1.210083618E0,8.502724831E0
1.357686304E1,5.458548889E0,-6.497089233E0,1.152303772E0,8.563628230E0
1.358684904E1,5.589825897E0,-6.526877289E0,1.013841705E0,8.652985364E0
1.359683404E1,5.739514618E0,-6.453829193E0,9.210346985E-1,8.685749491E0
1.360682004E1,5.903723145E0,-6.308032379E0,8.641529846E-1,8.682855512E0
1.361680504E1,6.076613617E0,-6.079906769E0,8.735833740E-1,8.640234214E0
1.362679104E1,6.189628601E0,-5.673352203E0,8.708889771E-1,8.441378741E0
1.363677604E1,6.312373352E0,-5.281766510E0,7.249424744E-1,8.262484880E0
1.364676204E1,6.339916077E0,-4.935985565E0,5.164260864E-1,8.051408899E0
1.365674704E1,6.399492188E0,-4.643793182E0,2.436932373E-1,7.910606916E0
1.366673304E1,6.478527832E0,-4.324656830E0,-3.891906738E-2,7.789447622E0
1.367671804E1,6.335724792E0,-3.991599426E0,-3.147953796E-1,7.494889643E0
1.368670404E1,6.144422607E0,-3.907773743E0,-4.541555786E-1,7.295949705E0
1.369668904E1,5.823939056E0,-3.973038025E0,-2.296224976E-1,7.053794991E0
1.370667504E1,5.464087372E0,-3.994443512E0,1.773811340E-1,6.770767596E0
1.371666004E1,5.170697479E0,-4.056264954E0,5.798941040E-1,6.597399106E0
1.372664604E1,4.661306763E0,-4.077071686E0,9.798623657E-1,6.269802590E0
1.373663104E1,3.910168762E0,-3.854334869E0,1.049018555E0,5.589790422E0
1.374661704E1,3.388353882E0,-3.546574860E0,7.071295166E-1,4.955720676E0
1.375660204E1,3.057092743E0,-3.432362366E0,3.641926575E-1,4.610809445E0
1.376658804E1,2.606230316E0,-3.581003265E0,-8.202941895E-2,4.429757293E0
1.377657304E1,2.219434662E0,-3.745511169E0,-6.694079590E-1,4.404866758E0
1.378655904E1,2.081421661E0,-4.035308533E0,-1.316212921E0,4.727414467E0
1.379654404E1,2.256108398E0,-4.593647461E0,-1.924547882E0,5.467678360E0
1.380653004E1,3.031945038E0,-5.924679565E0,-2.386636963E0,7.070399894E0
1.381651504E1,4.190685425E0,-8.116122437E0,-2.490371246E0,9.467588747E0
1.382650104E1,5.729335785E0,-1.059586578E1,-2.274071045E0,1.225842809E1
1.383648604E1,8.107739868E0,-1.317515213E1,-1.951491852E0,1.559257515E1
1.384647204E1,1.108430008E1,-1.566821777E1,-1.743424530E0,1.927159271E1
1.385645704E1,1.427087357E1,-1.782134033E1,-2.104024658E0,2.292781986E1
1.386644304E1,1.725117599E1,-1.932226913E1,-2.568957825E0,2.602984253E1
1.387642804E1,1.950533844E1,-1.998000137E1,-2.474055176E0,2.803176112E1
1.388641404E1,2.105970612E1,-2.022339523E1,-1.848655701E0,2.925601587E1
1.389639904E1,2.172836563E1,-2.073937225E1,-8.105644226E-1,3.004830193E1
1.390638504E1,2.122151962E1,-2.154574539E1,2.820135498E-1,3.024320703E1
1.391637004E1,1.973735596E1,-2.274579987E1,1.364712067E0,3.014626131E1
1.392635604E1,1.778077469E1,-2.396576294E1,2.918780365E0,2.998387935E1
1.393634104E1,1.574336151E1,-2.459565308E1,5.037624207E0,2.963405540E1
1.394632704E1,1.333906128E1,-2.466959930E1,6.578669586E0,2.880622466E1
1.395631204E1,1.283356247E1,-2.308035416E1,7.169191589E0,2.736421718E1
1.396629804E1,1.317799622E1,-2.063204544E1,6.502328339E0,2.533024195E1
1.397628304E1,1.334953949E1,-1.800261337E1,4.537663879E0,2.286689061E1
1.398626904E1,1.240829681E1,-1.431607956E1,2.812501373E0,1.915270549E1
1.399625404E1,1.028361511E1,-1.036025574E1,1.348246307E0,1.465965234E1
1.400624004E1,7.649243317E0,-6.704707489E0,-9.445358276E-2,1.017216532E1
1.401622504E1,5.173840942E0,-3.284170532E0,-1.345402222E0,6.274114545E0
1.402621104E1,3.368744659E0,-1.257385254E-1,-2.305805054E0,4.084236490E0
1.403619604E1,2.615960083E0,2.550845490E0,-2.997816010E0,4.726199392E0
1.404618204E1,2.391127625E0,4.364174652E0,-3.611988831E0,6.148981625E0
1.405616704E1,2.039808197E0,5.321284332E0,-4.236490173E0,7.101037489E0
1.406615304E1,1.591340790E0,5.592370605E0,-4.466412048E0,7.331835451E0
1.407613804E1,1.116827545E0,5.235961761E0,-4.008514252E0,6.688107792E0
1.408612404E1,6.126759338E-1,4.406087494E0,-3.319497070E0,5.550499041E0
1.409610904E1,3.592529297E-3,3.273991699E0,-2.573448486E0,4.164333280E0
1.410609504E1,-8.029302979E-1,2.177671509E0,-1.671424255E0,2.860176446E0
1.411608004E1,-1.249302063E0,1.496138763E0,-7.981402588E-1,2.106232351E0
1.412606604E1,-1.203347626E0,1.068178711E0,-7.978408813E-2,1.611029723E0
1.413605104E1,-9.633966064E-1,7.969427490E-1,3.679348755E-1,1.303313792E0
1.414603704E1,-6.849755859E-1,7.271878052E-1,5.656736755E-1,1.148033259E0
1.415602204E1,-5.101391602E-1,7.399113464E-1,5.658233643E-1,1.062010755E0
1.416600804E1,-3.692820740E-1,7.304809570E-1,3.384461975E-1,8.857299291E-1
1.417599304E1,-1.083746338E-1,6.779402161E-1,1.758842468E-1,7.087194551E-1
1.418597904E1,3.505709839E-1,6.617738342E-1,2.130070496E-1,7.785991431E-1
1.419596404E1,8.238867188E-1,7.364685059E-1,3.567082214E-1,1.161213133E0
1.420595004E1,1.308129730E0,7.942483521E-1,4.360432434E-1,1.591278588E0
1.421593504E1,1.841021576E0,9.033714294E-1,5.468128967E-1,2.122367717E0
1.422592104E1,2.347568207E0,1.018332367E0,6.155200195E-1,2.631908469E0
1.423590604E1,2.767894135E0,1.089733887E0,6.239025879E-1,3.039409864E0
1.424589204E1,3.041974182E0,1.156495056E0,5.912704468E-1,3.307671157E0
1.425587704E1,3.269201660E0,1.130598907E0,4.643344116E-1,3.490206273E0
1.426586304E1,3.496429138E0,1.044378204E0,2.670446777E-1,3.658832520E0
1.427584804E1,4.238735504E0,1.057700500E0,-3.727249146E-2,4.368866931E0
1.428583404E1,4.947062531E0,1.253493347E0,-1.869612122E-1,5.106821687E0
1.429581904E1,4.383334808E0,1.100511475E0,-5.613327026E-2,4.519723497E0
1.430580504E1,2.887645111E0,4.058061218E-1,-1.062789917E-1,2.917956155E0
1.431579004E1,1.570084991E0,-2.784210205E-1,-6.259982300E-1,1.713055437E0
1.432577604E1,8.298742676E-1,-5.321434021E-1,-1.121617584E0,1.493282929E0
1.433576104E1,1.154698792E0,-3.589535522E-1,-1.306034088E0,1.779860104E0
1.434574554E1,2.123783569E0,-3.715274048E-1,-1.483864288E0,2.617315894E0
1.435573154E1,4.022734680E0,-2.281705170E0,-2.757715302E0,5.384567436E0
1.436571654E1,6.466852112E0,-7.222630463E0,-3.997886353E0,1.048664209E1
1.437570254E1,9.062454529E0,-1.391715912E1,-3.600612488E0,1.699352260E1
1.438568754E1,1.203706879E1,-2.035317535E1,-1.725611572E0,2.370908069E1
1.439567354E1,1.482517090E1,-2.335173981E1,7.415579224E-1,2.767018887E1
1.440565854E1,1.787597672E1,-2.399989197E1,1.533560944E0,2.996493229E1
1.441564454E1,2.021561142E1,-2.540172684E1,1.541793823E0,3.250070460E1
1.442562954E1,2.213956055E1,-2.759721130E1,1.976040802E0,3.543544765E1
1.443561554E1,2.297811676E1,-2.652588913E1,3.331172791E0,3.525213974E1
1.444560054E1,2.247022293E1,-2.137225616E1,4.723277893E0,3.136867237E1
1.445558654E1,2.125295425E1,-1.677786026E1,5.377118225E0,2.760612359E1
1.446557154E1,1.874506943E1,-1.455917404E1,5.856571198E0,2.444681171E1
1.447555754E1,1.580428482E1,-1.412597488E1,6.073170776E0,2.204998840E1
1.448554254E1,1.336106552E1,-1.391611130E1,5.764961700E0,2.013482081E1
1.449552854E1,1.144744492E1,-1.347617615E1,4.776267700E0,1.831567776E1
1.450551354E1,9.932744751E0,-1.292427383E1,3.341351624E0,1.663913769E1
1.451549954E1,8.992549896E0,-1.216475327E1,1.781595154E0,1.523224399E1
1.452548454E1,8.543633423E0,-1.082863174E1,7.619155884E-2,1.379343114E1
1.453547054E1,7.511829071E0,-8.974287872E0,-1.642833710E0,1.181796604E1
1.454545554E1,5.659580841E0,-7.369475098E0,-3.088677063E0,9.791830498E0
1.455544154E1,3.521876221E0,-6.291865997E0,-3.921395416E0,8.207833566E0
1.456542654E1,1.740430756E0,-5.406606903E0,-4.093687134E0,7.001340712E0
1.457541254E1,7.033872986E-1,-4.490960999E0,-3.805087280E0,5.928083467E0
1.458539754E1,3.867956543E-1,-3.602259064E0,-2.978057098E0,4.689851311E0
1.459538354E1,6.517446899E-1,-2.920277252E0,-1.969604187E0,3.582196397E0
1.460536854E1,1.125210114E0,-2.328408051E0,-1.022074585E0,2.780686661E0
1.461535454E1,1.469194794E0,-1.852248230E0,-3.495231628E-1,2.389879346E0
1.462533954E1,1.587149506E0,-1.461710358E0,-2.409988403E-2,2.157827965E0
1.463532554E1,1.632804565E0,-1.183439026E0,1.227447510E-2,2.016613334E0
1.464531054E1,1.641785889E0,-1.032403107E0,-1.065783691E-1,1.942337774E0
1.465529654E1,1.633403320E0,-9.753717041E-1,-3.941304016E-1,1.942857468E0
1.466528154E1,1.710942078E0,-1.124611359E0,-8.409512329E-1,2.213430025E0
1.467526754E1,1.759441223E0,-1.484912109E0,-1.217717743E0,2.604502619E0
1.468525254E1,1.866019592E0,-2.237546997E0,-1.554517365E0,3.302297673E0
1.469523854E1,2.198627930E0,-3.564088440E0,-1.808838501E0,4.561643114E0
1.470522354E1,2.734363861E0,-5.241799622E0,-2.016606445E0,6.246591915E0
1.471520954E1,3.664828949E0,-7.279661865E0,-2.248174896E0,8.454509948E0
1.472519454E1,5.031636658E0,-9.642198944E0,-2.376158752E0,1.113263214E1
1.473518054E1,6.256988525E0,-1.159473862E1,-1.935325470E0,1.331665700E1
1.474516554E1,7.429200897E0,-1.286754181E1,-8.834628296E-1,1.488446051E1
1.475515154E1,8.870254211E0,-1.389081390E1,3.216810608E-1,1.648452606E1
1.476513654E1,1.024768982E1,-1.437131470E1,1.604812775E0,1.772357912E1
1.477512254E1,1.119192627E1,-1.395742538E1,2.858455811E0,1.811738686E1
1.478510754E1,1.190130112E1,-1.275542496E1,3.811823273E0,1.785698269E1
1.479509354E1,1.276201126E1,-1.094598770E1,4.459676056E0,1.739460516E1
1.480507854E1,1.337408844E1,-8.861272888E0,4.839735718E0,1.675742942E1
1.481506454E1,1.331421295E1,-7.030579834E0,4.896617432E0,1.583269344E1
1.482504954E1,1.241757751E1,-5.832321625E0,4.668342133E0,1.449157083E1
1.483503554E1,1.093296478E1,-5.456602936E0,3.929927673E0,1.283544179E1
1.484502054E1,9.360784149E0,-5.579647064E0,2.906056824E0,1.127838231E1
1.485500654E1,8.081244965E0,-5.944288788E0,1.938768311E0,1.021762751E1
1.486499154E1,6.967710571E0,-6.364015961E0,1.255738678E0,9.519798810E0
1.487497754E1,5.689967651E0,-6.796616364E0,5.635780334E-1,8.881854878E0
1.488496254E1,4.669240265E0,-7.294331360E0,-3.245251465E-1,8.666855901E0
1.489494854E1,4.366719360E0,-7.551197205E0,-9.903405762E-1,8.778928844E0
1.490493354E1,4.630770264E0,-7.470514984E0,-1.377734985E0,8.896672471E0
1.491491954E1,5.325026550E0,-7.193590851E0,-1.680405579E0,9.106449363E0
1.492490454E1,5.995632019E0,-7.328011322E0,-2.187700653E0,9.717684261E0
1.493489054E1,6.133645020E0,-7.777077484E0,-2.578088837E0,1.023479738E1
1.494487554E1,5.875581665E0,-8.219257965E0,-2.608475647E0,1.043469245E1
1.495486154E1,5.525908813E0,-8.469986572E0,-2.201172638E0,1.034995177E1
1.496484654E1,5.061724091E0,-8.462801514E0,-1.557810516E0,9.983327794E0
1.497483154E1,4.716990967E0,-8.223898315E0,-7.924520874E-1,9.513699995E0
1.498481754E1,4.681514740E0,-7.636220398E0,-5.284011841E-2,8.957188973E0
1.499480254E1,4.579277344E0,-7.172185364E0,5.346881104E-1,8.526189961E0
1.500478854E1,4.389022980E0,-6.868916016E0,1.094224548E0,8.224527786E0
1.501477354E1,4.333488464E0,-6.639293518E0,1.600322113E0,8.088286070E0
1.502475954E1,4.315675507E0,-6.503376160E0,2.058219910E0,8.071878700E0
1.503474454E1,4.518204346E0,-6.488556976E0,2.440674591E0,8.274807225E0
1.504473054E1,4.844675446E0,-6.565197601E0,2.652633820E0,8.579578422E0
1.505471554E1,5.268593903E0,-6.680906982E0,2.812351685E0,8.961133958E0
1.506470154E1,5.628295898E0,-6.683152313E0,2.971620483E0,9.228909354E0
1.507468654E1,6.044879608E0,-6.718029785E0,2.971171417E0,9.513167362E0
1.508467254E1,6.414760437E0,-6.874005432E0,2.755170593E0,9.797554141E0
1.509465754E1,6.568790131E0,-7.035818939E0,2.461631012E0,9.935360042E0
1.510464354E1,6.467600555E0,-7.222331085E0,2.081421661E0,9.915857975E0
1.511462854E1,6.319259033E0,-7.413184204E0,1.601968689E0,9.871911591E0
1.512461454E1,6.311175842E0,-7.519762573E0,1.203347626E0,9.890693362E0
1.513459954E1,6.402186584E0,-7.477700043E0,1.028960266E0,9.897613360E0
1.514458554E1,6.731801147E0,-7.418423309E0,1.096619568E0,1.007733723E1
1.515457054E1,7.442223816E0,-7.513325958E0,1.461261292E0,1.067576915E1
1.516455654E1,8.245004425E0,-7.613018646E0,1.842668152E0,1.137249211E1
1.517454154E1,8.818012848E0,-7.362439728E0,2.273172913E0,1.171025979E1
1.518452754E1,8.910520477E0,-7.032525787E0,2.449356537E0,1.161262854E1
1.519451254E1,8.564140778E0,-6.864724731E0,2.210902405E0,1.119629592E1
1.520449854E1,7.813302155E0,-6.772366791E0,1.628912659E0,1.046737785E1
1.521448354E1,6.506519623E0,-6.839277649E0,1.063987427E0,9.499609761E0
1.522446954E1,5.563480682E0,-7.022346954E0,5.159770203E-1,8.973957117E0
1.523445454E1,5.619314575E0,-6.784641266E0,3.415896606E-1,8.816163389E0
1.524444054E1,6.267766113E0,-6.531218262E0,5.294490051E-1,9.067635871E0
1.525442554E1,7.506290588E0,-6.646628265E0,1.106798401E0,1.008697519E1
1.526441154E1,8.885522461E0,-6.640191650E0,1.944456482E0,1.126168573E1
1.527439654E1,9.429940338E0,-6.342760162E0,2.470762024E0,1.163009227E1
1.528438254E1,8.621770935E0,-6.347550201E0,2.298919373E0,1.095040446E1
1.529436754E1,6.995552673E0,-6.886579285E0,1.216669922E0,9.891562927E0
1.530435354E1,6.346502380E0,-7.118297424E0,2.544708252E-3,9.536679567E0
1.531433854E1,6.913223877E0,-7.065307617E0,-1.098415833E0,9.945740467E0
1.532432454E1,7.929310913E0,-7.228618011E0,-1.246008911E0,1.080182522E1
1.533430954E1,9.512119446E0,-7.185956726E0,6.840774536E-2,1.192153807E1
1.534429583E1,9.809251556E0,-6.996450806E0,1.514101410E0,1.214348562E1
1.535428083E1,9.289831696E0,-7.654482422E0,1.914518738E0,1.218841483E1
1.536426683E1,8.539591827E0,-7.965834961E0,2.178569641E0,1.187961788E1
1.537425183E1,8.493637390E0,-7.359595642E0,2.325863342E0,1.147672272E1
1.538423783E1,8.663983154E0,-6.784790955E0,1.836680603E0,1.115667460E1
1.539422283E1,8.363408203E0,-6.633455658E0,1.287921753E0,1.075211947E1
1.540420883E1,8.211923218E0,-6.603517914E0,1.065184937E0,1.059135264E1
1.541419383E1,7.362290039E0,-6.518345032E0,9.256750488E-1,9.876690279E0
1.542417983E1,6.704857178E0,-6.798562317E0,7.470964050E-1,9.577771786E0
1.543416483E1,6.781348114E0,-6.850803680E0,1.052012329E0,9.696748076E0
1.544415083E1,6.694828033E0,-7.021149445E0,1.310524750E0,9.789521798E0
1.545413583E1,7.000342712E0,-7.486980743E0,1.642534332E0,1.038063571E1
1.546412183E1,7.203021240E0,-7.650440826E0,2.255659332E0,1.074712793E1
1.547410683E1,6.786287842E0,-7.506589966E0,2.814297638E0,1.050346927E1
1.548409183E1,6.493496704E0,-7.419022064E0,3.209775238E0,1.036870507E1
1.549407783E1,6.873556366E0,-7.478298798E0,3.324287109E0,1.068745128E1
1.550406383E1,7.454198914E0,-7.219337311E0,3.775748291E0,1.104265311E1
1.551404883E1,6.536157990E0,-6.754853210E0,4.089346161E0,1.025047097E1
1.552403383E1,5.398374023E0,-6.773115234E0,3.332070923E0,9.280098529E0
1.553401983E1,5.433850250E0,-6.773713989E0,2.152523804E0,8.946691482E0
1.554400483E1,4.773124237E0,-6.234235840E0,1.480271759E0,7.989969710E0
1.555399083E1,3.118614807E0,-5.782026215E0,8.030799866E-1,6.618347447E0
1.556397583E1,2.844235382E0,-5.900130615E0,7.529342651E-2,6.550334746E0
1.557396183E1,3.564537506E0,-5.535189514E0,4.399351501E-1,6.598317477E0
1.558394683E1,3.441792755E0,-4.738546143E0,1.455273743E0,6.034697886E0
1.559393283E1,2.911295929E0,-4.571493530E0,1.882784729E0,5.737514742E0
1.560391783E1,2.230661316E0,-4.803361359E0,1.578617249E0,5.526315469E0
1.561390383E1,1.529669037E0,-5.257217560E0,8.737330627E-1,5.544513802E0
1.562388883E1,2.005828857E-1,-5.567222900E0,-2.320175171E-2,5.570883470E0
1.563387483E1,-5.819897461E-1,-5.778283997E0,-5.013075256E-1,5.829115477E0
1.564385983E1,-8.511300659E-1,-5.875581665E0,-6.162684631E-1,5.968808014E0
1.565384583E1,-4.593946838E-1,-5.802084503E0,-8.083190918E-3,5.820248568E0
1.566383083E1,6.445596313E-1,-5.397625580E0,1.442250824E0,5.624047160E0
1.567381683E1,2.195035400E0,-4.936584320E0,2.886746979E0,6.125467597E0
1.568380183E1,3.010988617E0,-4.345164185E0,3.516637115E0,6.349270891E0
1.569378783E1,2.941832428E0,-4.207300873E0,3.324287109E0,6.116097077E0
1.570377283E1,2.825224915E0,-4.338128815E0,3.226989441E0,6.100386732E0
1.571375883E1,3.106190643E0,-4.822521515E0,3.206631775E0,6.571728952E0
1.572374383E1,3.788920898E0,-5.453609161E0,3.038231964E0,7.302645269E0
1.573372983E1,5.013674011E0,-6.467450867E0,3.099903717E0,8.750671452E0
1.574371483E1,6.469995575E0,-8.193062439E0,3.673510895E0,1.106714946E1
1.575370083E1,8.434210968E0,-1.057520874E1,4.575535126E0,1.427958250E1
1.576368583E1,9.976154480E0,-1.338142319E1,5.363945618E0,1.753163020E1
1.577367183E1,1.076845688E1,-1.514086441E1,5.700296173E0,1.943447491E1
1.578365683E1,1.258567795E1,-1.606968292E1,5.012476501E0,2.101806174E1
1.579364283E1,1.332049988E1,-1.749906052E1,3.957171021E0,2.234529119E1
1.580362783E1,1.385743332E1,-1.788121582E1,3.960015106E0,2.296623733E1
1.581361383E1,1.489657242E1,-1.898217636E1,4.344864807E0,2.451751903E1
1.582359883E1,1.608016113E1,-2.135249725E1,4.896467743E0,2.717491706E1
1.583358483E1,1.665676208E1,-2.396291885E1,5.788313141E0,2.975187006E1
1.584356983E1,1.620829468E1,-2.629551819E1,6.245911560E0,3.151467126E1
1.585355583E1,1.384935013E1,-2.788506271E1,6.838080139E0,3.187695973E1
1.586354083E1,9.706864471E0,-2.956172607E1,6.956483917E0,3.188277803E1
1.587352683E1,6.270161133E0,-2.974314880E1,6.309229889E0,3.104474518E1
1.588351183E1,3.746409302E0,-2.657393921E1,6.685547333E0,2.765694074E1
1.589349783E1,4.640350342E-1,-2.521386749E1,6.008355560E0,2.592401934E1
1.590348283E1,1.105301514E0,-2.166624481E1,6.212231598E0,2.256633947E1
1.591346883E1,3.767665100E-1,-1.711301331E1,6.719227295E0,1.838872461E1
1.592345383E1,-5.307962036E-1,-1.172227341E1,7.309449921E0,1.382466985E1
1.593343983E1,-8.068222046E-1,-6.878645782E0,6.491251373E0,9.492263917E0
1.594342483E1,-4.222718811E-1,-2.946323090E0,4.275259552E0,5.209316416E0
1.595340983E1,8.497828674E-1,-3.745211792E-1,1.447190552E0,1.719522471E0
1.596339583E1,1.731299744E0,1.629361725E0,-3.662882996E-1,2.405490709E0
1.597338083E1,2.573298798E0,3.289110260E0,-7.381150818E-1,4.240863931E0
1.598336683E1,3.676354980E0,4.373455353E0,-2.752775574E-1,5.720006591E0
1.599335183E1,4.938380585E0,4.481680298E0,3.875440979E-1,6.680063736E0
1.600333783E1,6.152954865E0,3.870950317E0,9.692344666E-1,7.333657026E0
1.601332283E1,7.142247620E0,3.122806091E0,1.615440674E0,7.960732850E0
1.602330883E1,7.645351410E0,2.250270538E0,2.234852600E0,8.277057558E0
1.603329383E1,7.486381989E0,1.229243774E0,2.879112854E0,8.114570005E0
1.604327983E1,7.017706604E0,2.221380615E-1,3.232378235E0,7.729542053E0
1.605326483E1,6.486760712E0,-2.227368164E-1,3.770209808E0,7.506141367E0
1.606325083E1,6.121669922E0,-1.522334290E-1,3.961661682E0,7.293338120E0
1.607323583E1,6.017486572E0,3.098556519E-1,3.842958527E0,7.146641548E0
1.608322183E1,6.506519623E0,7.176077271E-1,3.393892365E0,7.373483833E0
1.609320683E1,6.975793762E0,7.810757446E-1,2.657723236E0,7.505682563E0
1.610319283E1,7.029382324E0,8.626560974E-1,2.351011047E0,7.462147435E0
1.611317783E1,6.824308777E0,1.223256226E0,2.330803070E0,7.314382341E0
1.612316383E1,6.687792664E0,1.548380127E0,2.079475708E0,7.172745008E0
1.613314883E1,6.545887756E0,1.806593170E0,1.604064331E0,6.977495810E0
1.614313483E1,6.374344482E0,2.229164429E0,8.864566040E-1,6.810818375E0
1.615311983E1,6.171366577E0,2.594404907E0,1.031355286E-1,6.695322187E0
1.616310583E1,5.955665131E0,2.692301331E0,-6.222560120E-1,6.565488264E0
1.617309083E1,5.578299866E0,2.679278412E0,-1.315763855E0,6.326705045E0
1.618307683E1,4.998854828E0,2.511177979E0,-2.188000031E0,6.006821836E0
1.619306183E1,4.448898468E0,2.067350922E0,-2.749632111E0,5.623798908E0
1.620304783E1,3.786825256E0,1.453776855E0,-2.623594208E0,4.830813517E0
1.621303283E1,3.254681854E0,1.032103729E0,-2.064506836E0,3.990035157E0
1.622301883E1,2.972219238E0,5.304968262E-1,-1.285526733E0,3.281477269E0
1.623300383E1,2.567311249E0,1.251397705E-1,-5.357359314E-1,2.625597075E0
1.624298983E1,2.025438080E0,-1.544787598E-1,4.532574463E-1,2.081274949E0
1.625297483E1,2.082768860E0,-1.172960815E0,1.368005219E0,2.754124448E0
1.626296083E1,1.928739166E0,-2.079475708E0,2.546654205E0,3.811784573E0
1.627294583E1,2.404449921E0,-2.709964600E0,3.740721130E0,5.207521688E0
1.628293183E1,2.958896942E0,-4.117188263E0,4.058360596E0,6.494351471E0
1.629291683E1,4.184548187E0,-7.976163483E0,1.996248779E0,9.225759406E0
1.630290283E1,6.090384979E0,-1.470332428E1,-1.480122070E0,1.598346944E1
1.631288783E1,7.058571625E0,-2.138423126E1,-3.127296753E0,2.273518782E1
1.632287383E1,8.306825867E0,-2.430989731E1,-1.931433563E0,2.576247074E1
1.633285883E1,1.173394913E1,-2.472453506E1,-4.767585754E-1,2.737180109E1
1.634284383E1,1.496408203E1,-2.661630112E1,-7.732919312E-1,3.054421740E1
1.635282983E1,1.634196671E1,-3.173535599E1,-2.315235443E0,3.577084023E1
1.636281483E1,1.515418671E1,-3.650054672E1,-2.005679169E0,3.957223818E1
1.637280083E1,1.264660126E1,-3.562232300E1,2.867586823E0,3.790922676E1
1.638278583E1,1.196282318E1,-3.009237259E1,8.979526978E0,3.360493909E1
1.639277183E1,1.185774170E1,-2.413910248E1,1.301468582E1,2.987782378E1
1.640275683E1,1.158964920E1,-1.965712280E1,1.361568604E1,2.657271818E1
1.641274283E1,1.113609238E1,-1.638732239E1,1.102053268E1,2.267176723E1
1.642272783E1,1.002001328E1,-1.390144180E1,6.216273193E0,1.822890020E1
1.643271383E1,8.420140228E0,-1.208392136E1,1.085542603E0,1.476815220E1
1.644269883E1,6.329437866E0,-1.056443115E1,-3.528163147E0,1.281081279E1
1.645268483E1,4.300556946E0,-8.796607361E0,-6.986421661E0,1.202851523E1
1.646266983E1,3.048261108E0,-7.012916565E0,-8.770262146E0,1.163573774E1
1.647265583E1,2.152074738E0,-5.199138336E0,-8.747359772E0,1.040090227E1
1.648264083E1,1.706451416E0,-3.938459930E0,-7.525151367E0,8.663218002E0
1.649262683E1,1.389261017E0,-3.363505554E0,-5.751938782E0,6.806468654E0
1.650261183E1,1.042881317E0,-3.066373444E0,-4.007316742E0,5.152556162E0
1.651259783E1,7.954458618E-1,-2.680924988E0,-2.348616028E0,3.651861191E0
1.652258283E1,7.388635254E-1,-2.296374664E0,-9.340576172E-1,2.586835816E0
1.653256883E1,8.146060181E-1,-2.176324310E0,1.245410156E-1,2.327118590E0
1.654255383E1,6.054908752E-1,-2.091899872E0,1.125509491E0,2.451415079E0
1.655253983E1,5.412744141E-1,-1.676813049E0,2.008373566E0,2.671749310E0
1.656252483E1,7.469467163E-1,-1.462458801E0,2.358046417E0,2.873516669E0
1.657251083E1,7.625143433E-1,-1.856289825E0,2.487377472E0,3.195979776E0
1.658249583E1,5.719606018E-1,-2.162253571E0,2.611020355E0,3.438009123E0
1.659248183E1,1.094224548E0,-2.266137543E0,2.239343262E0,3.368585010E0
1.660246683E1,1.854343872E0,-2.589914246E0,1.634002075E0,3.579973432E0
1.661245283E1,2.402354279E0,-3.281775513E0,8.996292114E-1,4.165415863E0
1.662243783E1,3.209475861E0,-4.476441193E0,6.376739502E-2,5.508477769E0
1.663242383E1,3.935316467E0,-6.096671906E0,-5.291496277E-1,7.275721500E0
1.664240883E1,4.416565704E0,-7.805668030E0,-1.018332367E0,9.026156813E0
1.665239483E1,4.955445099E0,-9.514664154E0,-1.431922302E0,1.082292343E1
1.666237983E1,5.786965942E0,-1.166928360E1,-1.676214294E0,1.313281573E1
1.667236583E1,6.567442932E0,-1.388153320E1,-1.480271759E0,1.542787980E1
1.668235083E1,7.299121399E0,-1.539802963E1,-1.049018555E0,1.707269544E1
1.669233683E1,8.043373718E0,-1.622491013E1,-1.228944397E-1,1.810962927E1
1.670232183E1,8.628057861E0,-1.624781250E1,1.485361176E0,1.845646476E1
1.671230683E1,9.220076752E0,-1.563214279E1,3.423381042E0,1.846870979E1
1.672229283E1,9.422455902E0,-1.454689957E1,5.168152771E0,1.808603786E1
1.673227783E1,8.990753632E0,-1.292322601E1,6.539451141E0,1.704722390E1
1.674226383E1,8.368647308E0,-1.104238724E1,7.406148834E0,1.571049376E1
