"Time (s)","Acceleration x (m/s^2)","Acceleration y (m/s^2)","Acceleration z (m/s^2)","Absolute acceleration (m/s^2)"
1.886079164E-2,1.405577087E-1,2.181862793E0,9.732910309E0,9.975461132E0
2.884579165E-2,4.567002869E-1,2.501597900E0,1.167542084E1,1.194914302E1
3.883179167E-2,4.363426208E-1,2.193538513E0,1.234587662E1,1.254681934E1
4.881679168E-2,-1.824705505E-1,1.556762695E0,1.215382599E1,1.225448048E1
5.880179163E-2,-4.405339050E-1,1.353036346E0,1.159324173E1,1.168024106E1
6.878779165E-2,-3.903881836E-1,1.507814484E0,1.068373306E1,1.079666891E1
7.877279166E-2,-2.724334717E-1,1.554816742E0,9.864486694E0,9.989983626E0
8.875779167E-2,-1.441502380E-1,1.564247131E0,9.241482239E0,9.374040876E0
9.874379163E-2,-4.236190796E-2,1.616937561E0,8.778944092E0,8.926709415E0
1.087287916E-1,5.239105225E-3,1.596879272E0,8.654253387E0,8.800349570E0
1.187137917E-1,3.173400879E-2,1.481169891E0,9.009764099E0,9.130756837E0
1.286997917E-1,7.200027466E-2,1.458267517E0,9.724527740E0,9.833522663E0
1.386847916E-1,-1.077758789E-2,1.329684906E0,1.017898270E1,1.026546964E1
1.486697916E-1,-2.001338196E-1,1.050814819E0,1.025682083E1,1.031245067E1
1.586557917E-1,-3.427871704E-1,7.866142273E-1,1.001537292E1,1.005206247E1
1.686407917E-1,-3.914360046E-1,5.998027039E-1,9.658515015E0,9.685034730E0
1.786257916E-1,-4.207749939E-1,5.272036743E-1,9.521849213E0,9.545711484E0
1.886117916E-1,-2.826123047E-1,5.662724304E-1,9.864786072E0,9.885066435E0
1.985967917E-1,-2.544708252E-2,6.222560120E-1,1.050919601E1,1.052763273E1
2.085827917E-1,2.857557678E-1,5.986051941E-1,1.086844894E1,1.088867150E1
2.185677916E-1,2.649490356E-1,5.258564758E-1,1.084360062E1,1.085957630E1
2.285527916E-1,-2.380050659E-2,3.541635132E-1,1.030636780E1,1.031247863E1
2.385387917E-1,-4.328997803E-1,2.134561157E-1,9.557325439E0,9.569505488E0
2.485237917E-1,-6.367758179E-1,2.236349487E-1,8.919052734E0,8.944551286E0
2.585087916E-1,-7.511380005E-1,3.107537842E-1,8.638386383E0,8.676548595E0
2.684947916E-1,-7.575746155E-1,3.965254211E-1,8.519383850E0,8.562187390E0
2.784797917E-1,-7.559280396E-1,5.219645691E-1,8.615633698E0,8.664468721E0
2.884647917E-1,-6.024971008E-1,4.466711426E-1,9.031169586E0,9.062259208E0
2.984507916E-1,-9.460327148E-2,1.709445190E-1,9.215436401E0,9.217507248E0
3.084357916E-1,2.565664673E-1,-1.505868530E-1,9.069190521E0,9.074068518E0
3.184207916E-1,2.652484131E-1,-4.055067444E-1,8.932375031E0,8.945508154E0
3.284067917E-1,-2.896476746E-1,-4.912783813E-1,8.962761841E0,8.980888043E0
3.383917916E-1,-1.320553894E0,-3.811074829E-1,8.570128326E0,8.679643140E0
3.483767916E-1,-1.827250214E0,-2.562670898E-1,7.960296478E0,8.171342374E0
3.583627917E-1,-1.375639343E-1,-1.019829254E0,8.832682343E0,8.892426716E0
3.683477917E-1,1.927990723E0,-3.000211029E0,1.040366547E1,1.099793933E1
3.783327917E-1,1.985471191E0,-4.731810150E0,1.164009430E1,1.272100304E1
3.883187916E-1,2.165995789E-1,-5.436544647E0,1.193019104E1,1.311229924E1
3.983037916E-1,-2.770738220E-1,-5.476810913E0,1.101978424E1,1.230885342E1
4.082887917E-1,1.525178375E0,-4.365072784E0,1.025622208E1,1.125033870E1
4.182747917E-1,3.374283142E0,-2.933000793E0,9.449699249E0,1.045395123E1
4.282597916E-1,4.445156250E0,-1.982627106E0,8.541088715E0,9.830585982E0
4.382447916E-1,5.397176514E0,-1.368753662E0,8.027357025E0,9.769414605E0
4.482307917E-1,5.510490875E0,-8.863069153E-1,7.647447052E0,9.467549633E0
4.582157917E-1,5.013823700E0,-5.707630920E-1,7.085066528E0,8.698411712E0
4.682007916E-1,4.552033997E0,-5.769003296E-1,6.308780823E0,7.800932186E0
4.781867916E-1,4.860093384E0,-1.004261627E0,5.816454620E0,7.645926593E0
4.881717917E-1,4.881947937E0,-1.983375549E0,5.542973328E0,7.647989771E0
4.981567917E-1,4.947212219E0,-2.925516357E0,5.880521393E0,8.222778518E0
5.081427916E-1,5.216502228E0,-2.885848846E0,6.924450531E0,9.137178679E0
5.181277916E-1,4.933141479E0,-1.895358582E0,8.049361267E0,9.629147720E0
5.281127917E-1,5.760620728E0,-1.952090607E0,8.396489410E0,1.036804916E1
5.380987917E-1,5.870043182E0,-1.804946594E0,8.149503021E0,1.020439311E1
5.480837916E-1,5.723348236E0,-1.476379852E0,7.626790009E0,9.649058935E0
5.580687916E-1,5.632786560E0,-1.145118713E0,7.026837616E0,9.078327389E0
5.680547917E-1,6.007008362E0,-9.006770325E-1,6.333329773E0,8.775331024E0
5.780397917E-1,6.659351807E0,-7.776329041E-1,5.873486023E0,8.913445881E0
5.880247916E-1,7.284152527E0,-5.119354248E-1,5.838608551E0,9.349347877E0
5.980107916E-1,7.773185577E0,-1.775308228E-1,6.365512848E0,1.004856632E1
6.079957917E-1,8.623417511E0,4.016148376E-1,7.480095062E0,1.142262869E1
6.179807917E-1,9.520801392E0,1.296154633E0,8.213270416E0,1.264054931E1
6.279667916E-1,9.904902649E0,1.993704071E0,8.261021118E0,1.305091653E1
6.379517916E-1,9.694440308E0,2.014959869E0,8.070467377E0,1.277398449E1
6.479367916E-1,9.029972076E0,1.328786774E0,7.762557678E0,1.198179334E1
6.579227917E-1,9.013805695E0,8.532257080E-1,7.381599884E0,1.168181082E1
6.679077917E-1,9.468110962E0,1.329235840E0,7.042704620E0,1.187483396E1
6.778927916E-1,9.347761230E0,2.240391083E0,6.573280792E0,1.164508534E1
6.878787917E-1,9.476044464E0,2.716999969E0,6.074368286E0,1.157909572E1
6.978637917E-1,9.805659027E0,2.799328766E0,5.169649658E0,1.143295535E1
7.078487917E-1,9.747280426E0,2.881507874E0,4.314777374E0,1.104218579E1
7.178347916E-1,9.555229797E0,2.782563629E0,3.860023041E0,1.067449552E1
7.278197916E-1,9.276509399E0,2.570155334E0,3.594624939E0,1.027524469E1
7.378047917E-1,8.829239502E0,2.505040741E0,3.155438232E0,9.705023943E0
7.477907917E-1,8.452023926E0,2.573897552E0,2.829416199E0,9.277243830E0
7.577757916E-1,8.490493927E0,2.734812927E0,2.612217865E0,9.294695855E0
7.677607916E-1,8.697064362E0,2.956501923E0,2.389780426E0,9.491621706E0
7.777467917E-1,9.718839569E0,2.780018921E0,2.675985260E0,1.045682767E1
7.877316666E-1,1.080468155E1,2.543061676E0,3.669319611E0,1.169068914E1
7.977166667E-1,1.104178848E1,2.283351746E0,4.264481964E0,1.205489919E1
8.077026667E-1,1.101604202E1,1.977388000E0,3.868106232E0,1.184168447E1
8.176876666E-1,1.077863571E1,1.660197601E0,3.419339447E0,1.142922246E1
8.276726666E-1,1.035816010E1,1.346899109E0,2.901266785E0,1.084080102E1
8.376586667E-1,9.574539642E0,8.364605713E-1,2.016456757E0,9.820263413E0
8.476436667E-1,9.290131073E0,4.631369019E-1,1.457668762E0,9.415191414E0
8.576286666E-1,8.924441528E0,1.314266968E-1,9.815089417E-1,8.979214296E0
8.676146666E-1,8.658893738E0,-9.131011963E-3,6.270460510E-1,8.681573065E0
8.775996667E-1,8.808133392E0,-8.337661743E-2,8.487350464E-1,8.849322951E0
8.875846667E-1,9.098529510E0,-2.300715637E-1,1.197958832E0,9.179938864E0
8.975706666E-1,1.065993256E1,-1.477727051E0,-7.738906860E-2,1.076214795E1
9.075556666E-1,1.133802246E1,-9.324110413E-1,-8.057743835E-1,1.140479794E1
9.175406666E-1,1.092413315E1,6.361770630E-2,-1.395098877E-1,1.092520916E1
9.275266667E-1,1.039288788E1,-7.460485840E-1,-1.123413849E0,1.048001744E1
9.375116667E-1,8.566086731E0,-1.575024719E0,-2.272424469E0,9.001247564E0
9.474966666E-1,7.628436584E0,-2.448757782E0,-6.101312256E-1,8.035030772E0
9.574826667E-1,6.198310547E0,-3.505410461E0,1.434317322E0,7.263898562E0
9.674676667E-1,4.848417664E0,-4.928052063E0,2.619552612E0,7.392895702E0
9.774526667E-1,3.584895172E0,-5.993087311E0,2.526595917E0,7.426456479E0
9.874386666E-1,2.903362427E0,-6.116430817E0,1.161734161E0,6.869488014E0
9.974236666E-1,2.303410034E0,-6.026168518E0,-3.013233948E-1,6.458420905E0
1.007408667E0,5.513035583E-1,-5.619913330E0,-1.266665955E0,5.787210389E0
1.017394667E0,-2.780168610E0,-2.729723511E0,3.004851379E0,4.920351589E0
1.027379667E0,3.651207275E0,-2.760409698E0,4.123325500E0,6.160599764E0
1.037364667E0,1.144939087E1,-3.047213287E0,2.592608643E0,1.212830077E1
1.047350667E0,1.854209152E1,-2.646047516E0,1.688039703E0,1.880585556E1
1.057335667E0,2.203148529E1,-1.330283661E0,6.586303711E-1,2.208143548E1
1.067320667E0,1.999946091E1,2.715353394E0,6.902146912E-1,2.019475122E1
1.077306667E0,1.877006744E1,3.745960236E0,8.951385498E-2,1.914041961E1
1.087291667E0,1.717827759E1,2.044598236E0,1.113684082E0,1.733533660E1
1.097276667E0,1.380459320E1,4.580474854E-1,1.764979706E0,1.392450194E1
1.107262667E0,1.152034332E1,-5.520520020E-1,1.830842743E0,1.167797315E1
1.117247667E0,9.689500580E0,-1.720821533E0,1.647623749E0,9.978091614E0
1.127232667E0,8.804391174E0,-1.892514496E0,2.636617126E0,9.383531581E0
1.137218667E0,8.440647583E0,-8.830137634E-1,3.303181000E0,9.106879248E0
1.147203667E0,9.785750427E0,-7.664062500E-1,3.942800903E0,1.057799456E1
1.157188667E0,1.225321930E1,-1.270857239E-1,4.639452209E0,1.310274974E1
1.167174667E0,1.412133453E1,5.553451538E-2,4.563709717E0,1.484057342E1
1.177159667E0,1.419662796E1,-1.143621826E-1,3.713028717E0,1.467460072E1
1.187144667E0,1.354817642E1,-3.688330078E-1,2.430944824E0,1.376948129E1
1.197130667E0,1.284718414E1,-2.673440552E-1,1.376238098E0,1.292345328E1
1.207115667E0,1.204260727E1,-8.292755127E-2,-2.613565063E-1,1.204572846E1
1.217100667E0,9.958341522E0,-9.663903809E-1,-8.051756287E-1,1.003746901E1
1.227086667E0,5.807622986E0,-3.292253723E0,2.603535919E0,7.165599668E0
1.237071667E0,3.439697113E0,-5.809568939E0,6.209537201E0,9.172838151E0
1.247056667E0,2.737058258E0,-5.968089294E0,1.709445190E0,6.784672475E0
1.257042667E0,5.433101807E0,-5.511838074E0,-1.126707001E0,7.821024412E0
1.267027667E0,8.207731934E0,-6.208788757E0,1.682351532E0,1.042814595E1
1.277012667E0,5.260510712E0,-9.611363068E0,3.828139343E0,1.160628811E1
1.286998667E0,4.986131287E-1,-1.203257812E1,4.307442627E0,1.279005916E1
1.296983667E0,-8.681945801E-1,-8.932075653E0,5.086422729E0,1.031539788E1
1.306968667E0,1.078507233E0,-6.251899109E0,4.696782990E0,7.893617090E0
1.316954667E0,1.618135071E0,-6.590494995E0,2.590962067E0,7.264025731E0
1.326939667E0,-3.628454590E-1,-5.980513458E0,1.384620667E-1,5.993110194E0
1.336924667E0,1.392703857E0,-5.574707336E0,-1.795067139E0,6.019904647E0
1.346910667E0,6.423143005E0,-7.131619720E0,-4.402644653E0,1.055935821E1
1.356895667E0,9.867181091E0,-9.052126007E0,-7.220684509E0,1.521316971E1
1.366880667E0,9.132957916E0,-9.380992126E0,-7.400161285E0,1.503915957E1
1.376866667E0,8.681197357E0,-8.007897491E0,-5.688171387E0,1.310896272E1
1.386851667E0,9.304650879E0,-7.077133026E0,-4.757855988E0,1.262139190E1
1.396836667E0,8.025710449E0,-6.286776581E0,-3.705993347E0,1.084757921E1
1.406822667E0,1.057311310E1,-5.274431763E0,3.039878540E0,1.220045952E1
1.416807667E0,1.748244507E1,-2.083068237E0,1.256846375E1,2.163195183E1
1.426792667E0,1.899534897E1,-5.483846283E0,-2.311792603E0,1.990578402E1
1.436778667E0,1.862546814E1,-7.974367218E0,-5.418582001E0,2.097283068E1
1.446763667E0,1.748124756E1,-7.000043335E0,-7.543862457E0,2.028557329E1
1.456748667E0,1.437385941E1,-6.045927429E0,-8.425529022E0,1.772429440E1
1.466734667E0,1.165670975E1,-5.642516327E0,-8.674611053E0,1.558735865E1
1.476719667E0,9.737550659E0,-5.596412201E0,-8.725804596E0,1.422249585E1
1.486704667E0,8.804391174E0,-5.213807831E0,-9.387578430E0,1.388624229E1
1.496690667E0,7.752229156E0,-4.576582947E0,-1.067669769E1,1.396545889E1
1.506675667E0,6.496939545E0,-4.043391724E0,-1.228749802E1,1.447556035E1
1.516660667E0,6.935527496E0,-3.415746918E0,-1.389036484E1,1.589688976E1
1.526646667E0,8.123606873E0,-3.852538605E0,-1.335088669E1,1.609600005E1
1.536631667E0,7.988138580E0,-4.428391113E0,-1.061023590E1,1.399993256E1
1.546616667E0,5.109923859E0,-5.488037567E0,-8.426427155E0,1.127982947E1
1.556602667E0,-5.498066711E-1,-7.796087952E0,-6.810986481E0,1.036681299E1
1.566587667E0,-4.033512268E0,-6.003415833E0,-4.098028107E0,8.312885013E0
1.576572667E0,-5.985303497E0,-5.019661560E0,-2.179916840E0,8.110049171E0
1.586558667E0,-8.129444733E0,-7.430697784E0,2.902314606E0,1.138975730E1
1.596543667E0,-9.023834839E0,-1.152707932E1,1.236114487E1,1.915988140E1
1.606528667E0,-3.833079071E0,-1.156375305E1,1.058987823E1,1.614182148E1
1.616514667E0,1.227447510E-2,-7.911348267E0,1.366208954E1,1.578740867E1
1.626499667E0,6.548881531E-1,-1.026744873E1,1.514415756E1,1.830832844E1
1.636484667E0,1.330732727E0,-1.191222839E1,1.469015167E1,1.895976242E1
1.646470667E0,3.506158905E0,-1.185953796E1,1.118294495E1,1.667333346E1
1.656455667E0,3.382066956E0,-8.579409027E0,7.070247345E0,1.162037149E1
1.666440667E0,2.999013519E0,-5.486840057E0,1.942660217E0,6.547780129E0
1.676426667E0,2.642305298E0,-3.587589569E0,1.177451477E0,4.608575505E0
1.686411667E0,3.147355042E0,-3.111579437E0,1.621128845E-1,4.428775332E0
1.696396667E0,5.749394073E0,-6.331683197E0,-1.171613617E0,8.632405388E0
1.706382667E0,1.065768723E1,-1.448956879E1,-2.536325684E0,1.816498964E1
1.716367667E0,1.573078766E1,-2.542193481E1,-8.007897491E0,3.094929518E1
1.726352667E0,1.711241455E1,-3.477343826E1,-1.812835190E1,4.278625811E1
1.736338667E0,1.542138107E1,-3.547173615E1,-1.956521393E1,4.334582627E1
1.746323667E0,1.132604736E1,-2.535951462E1,-9.904603271E0,2.948703947E1
1.756308667E0,8.136779480E0,-1.611937958E1,-3.607947235E0,1.841355103E1
1.766294667E0,6.428232422E0,-1.032567764E1,-5.379812622E-1,1.217502422E1
1.776279667E0,4.568050690E0,-7.017856293E0,6.891668701E-1,8.401925078E0
1.786264792E0,2.975662079E0,-5.331912231E0,8.671467590E-1,6.167316787E0
1.796250792E0,1.842219086E0,-4.576882324E0,8.767268372E-1,5.011015158E0
1.806235792E0,1.083746338E0,-4.689148865E0,1.140777740E0,4.946109284E0
1.816220792E0,5.224136353E-2,-5.533992004E0,1.492845612E0,5.732048908E0
1.826206792E0,-1.903741150E0,-7.200326843E0,1.791923676E0,7.660282467E0
1.836191792E0,-4.538861389E0,-9.591903534E0,2.317181396E0,1.086163918E1
1.846176792E0,-7.357799377E0,-1.217463272E1,2.848127289E0,1.450760913E1
1.856162792E0,-9.197324066E0,-1.412432831E1,3.401676178E0,1.719473236E1
1.866147792E0,-9.341025238E0,-1.514071472E1,3.859274597E0,1.820412028E1
1.876132792E0,-7.983797607E0,-1.505494308E1,4.180955658E0,1.754630234E1
1.886118792E0,-5.648653564E0,-1.418270691E1,3.902085571E0,1.575699001E1
1.896103792E0,-3.309318237E0,-1.285392014E1,3.122506714E0,1.363542805E1
1.906088792E0,-2.128274231E0,-1.172526718E1,2.282303925E0,1.213343945E1
1.916074792E0,-1.944456482E0,-1.083132614E1,1.603315887E0,1.112066360E1
1.926059792E0,-2.211800537E0,-1.003887405E1,1.259929962E0,1.035656687E1
1.936044792E0,-2.456092529E0,-9.219927063E0,1.175804901E0,9.613634210E0
1.946030792E0,-2.613265686E0,-8.729097748E0,1.153950348E0,9.184656033E0
1.956015792E0,-2.730322266E0,-8.667425995E0,9.589059448E-1,9.137747735E0
1.966000792E0,-2.252665558E0,-8.537795563E0,8.050259399E-1,8.866595849E0
1.975986792E0,-1.584754486E0,-8.371940460E0,5.550457764E-1,8.538671423E0
1.985971792E0,-8.919950867E-1,-8.284971313E0,2.082170105E-1,8.335451951E0
1.995956792E0,-1.652563477E-1,-8.250243530E0,-4.857398987E-1,8.266182385E0
2.005942792E0,1.353335724E0,-8.482111359E0,-6.479575653E0,1.075930441E1
2.015927792E0,5.155129852E0,-9.586963806E0,-1.665466644E1,1.989631004E1
2.025912792E0,4.936584320E0,-9.329648895E0,-9.750124512E0,1.436931248E1
2.035898792E0,3.268004150E0,-8.550818481E0,-5.663472748E0,1.076435188E1
2.045883792E0,2.109712830E0,-7.733817444E0,-2.875969391E0,8.516690696E0
2.055868792E0,1.371148682E0,-6.951095123E0,-9.358538818E-1,7.146579224E0
2.065854792E0,6.891668701E-1,-6.192023621E0,2.948867798E-1,6.237232215E0
2.075839792E0,-2.814147949E-2,-5.582491150E0,1.044976959E0,5.679522535E0
2.085824792E0,-4.905299377E-1,-5.390141144E0,1.503772888E0,5.617434830E0
2.095810792E0,-4.412823486E-1,-5.385650482E0,1.810934143E0,5.699073933E0
2.105795792E0,-1.350192261E-1,-5.364993439E0,1.707050171E0,5.631643195E0
2.115780792E0,3.200344849E-1,-5.091811523E0,1.474134521E0,5.310559222E0
2.125766792E0,3.427871704E-1,-4.950954437E0,1.206042023E0,5.107248794E0
2.135751792E0,1.317260742E-1,-4.707710266E0,8.689430237E-1,4.789044757E0
2.145736792E0,-8.232879639E-3,-4.449646912E0,5.565426636E-1,4.484324381E0
2.155722792E0,1.800755310E-1,-4.355642395E0,-4.869374084E-1,4.386474200E0
2.165707792E0,8.803193665E-1,-4.527335358E0,-3.728596344E0,5.930780583E0
2.175692792E0,1.325643311E0,-4.973108368E0,-5.909860382E0,7.836809731E0
2.185678792E0,1.329535217E0,-5.733676758E0,-7.388036499E0,9.445940735E0
2.195663792E0,1.465003510E0,-7.021598511E0,-1.022613464E1,1.249091312E1
2.205648792E0,1.397194519E0,-8.900191956E0,-1.401909714E1,1.666435279E1
2.215634792E0,1.128203888E0,-1.117366425E1,-1.495090942E1,1.869901894E1
2.225619792E0,1.410516815E0,-1.328427521E1,-1.108789261E1,1.736095873E1
2.235604792E0,1.238075409E0,-1.552646255E1,-5.321583710E0,1.645974251E1
2.245590792E0,2.188449097E-1,-1.776011765E1,7.155120850E-2,1.776161005E1
2.255575792E0,-6.982978821E-1,-1.891346924E1,2.374811554E0,1.907476523E1
2.265560792E0,-1.158740387E0,-1.914668427E1,2.077080688E0,1.929384518E1
2.275546792E0,-5.707630920E-1,-2.028910858E1,1.409768372E0,2.034603510E1
2.285531792E0,1.487157440E0,-2.365770355E1,1.194665680E0,2.373448547E1
2.295516792E0,3.132835236E0,-2.644251251E1,-8.195307770E0,2.786008245E1
2.305502792E0,4.245172119E0,-2.626722702E1,-1.216475327E1,2.925696368E1
2.315487792E0,3.504662018E0,-2.417128555E1,-6.393504639E0,2.524699195E1
2.325472792E0,1.795366516E0,-2.382295990E1,-3.761677551E0,2.418485016E1
2.335458792E0,1.081650696E0,-2.597219055E1,-4.876409454E0,2.644813830E1
2.345443792E0,1.479673004E0,-2.777234711E1,-4.525539093E0,2.817753006E1
2.355428792E0,1.478625183E0,-2.575798599E1,-1.100062408E0,2.582383225E1
2.365414792E0,1.989512787E0,-2.254551636E1,1.040186920E0,2.265701785E1
2.375399792E0,3.492088165E0,-1.917228104E1,1.738335114E0,1.956509261E1
2.385384792E0,4.383035431E0,-1.606519226E1,1.611848145E0,1.673019595E1
2.395370792E0,4.403542786E0,-1.328472427E1,1.040785675E0,1.403418408E1
2.405355792E0,3.939807129E0,-1.057550812E1,6.149212646E-1,1.130228208E1
2.415340792E0,3.255130920E0,-7.774532776E0,3.062631226E-1,8.434040212E0
2.425326792E0,1.967508545E0,-4.939428406E0,-3.472778320E-2,5.316977419E0
2.435311792E0,6.891668701E-1,-2.421813812E0,-9.723779297E-1,2.699194686E0
2.445296792E0,-2.574645996E-1,-1.960922241E-1,-2.437830505E0,2.459218932E0
2.455282792E0,-1.176104279E0,1.421743469E0,-3.657793579E0,4.096831658E0
2.465267792E0,-1.701362000E0,2.337239685E0,-4.046385498E0,4.972982767E0
2.475252792E0,-1.795965271E0,2.707120514E0,-3.815864868E0,5.011468590E0
2.485238792E0,-1.826202393E0,2.820584564E0,-3.025059357E0,4.521249448E0
2.495223792E0,-2.146386566E0,3.288661194E0,-1.758094025E0,4.302692452E0
2.505208792E0,-3.488795013E0,5.160818024E0,-4.228706360E-1,6.243761118E0
2.515193792E0,-4.714895325E0,6.479425964E0,6.295907593E-1,8.038008664E0
2.525179792E0,-3.943249969E0,4.892575836E0,2.528242493E-1,6.288913955E0
2.535164792E0,-3.466491394E0,3.393143921E0,-1.135688324E0,4.981945024E0
2.545149792E0,-3.026406555E0,1.404379578E0,-2.573298798E0,4.213464766E0
2.555135792E0,-2.623294830E0,-1.348695374E-1,-2.913990326E0,3.923162650E0
2.565120792E0,-2.220033417E0,-1.214873657E0,-2.726729736E0,3.720150727E0
2.575106792E0,-1.886377258E0,-2.309247894E0,-2.292183380E0,3.761003808E0
2.585091792E0,-1.586700439E0,-3.107687531E0,-1.798210602E0,3.925417359E0
2.595076792E0,-1.084943848E0,-2.775228882E0,-1.516496429E0,3.343465256E0
2.605062792E0,-2.366578674E-1,-1.679058380E0,-8.092172241E-1,1.878849783E0
2.615047792E0,1.001567230E0,-6.753955078E-1,1.305285645E-1,1.215044738E0
2.625032792E0,2.781815186E0,-1.014889526E-1,9.198371887E-1,2.931705338E0
2.635018792E0,3.357967072E0,-2.275268555E-2,1.565444641E0,3.705007080E0
2.645003792E0,3.395988007E0,-3.344046021E-1,1.959724731E0,3.935108893E0
2.654988792E0,3.782633972E0,-6.517446899E-1,1.991159363E0,4.324096035E0
2.664973792E0,3.285667419E0,-8.071215820E-1,1.979783020E0,3.920025057E0
2.674959792E0,2.498903503E0,-9.487271118E-1,1.957629089E0,3.313142542E0
2.684944792E0,1.567540283E0,-1.181493073E0,1.733395386E0,2.618734042E0
2.694929792E0,6.301895142E-1,-1.450783081E0,1.357527008E0,2.084415973E0
2.704915792E0,-1.941462708E-1,-2.413131866E0,1.090781708E0,2.655315972E0
2.714900792E0,-6.107299805E-1,-4.362228699E0,8.184979248E-1,4.480175128E0
2.724885792E0,-9.319619751E-1,-7.570806427E0,4.581971741E-1,7.641701887E0
2.734871792E0,-2.100881195E0,-1.426099411E1,-5.402265930E-1,1.442503031E1
2.744856792E0,-3.791465607E0,-2.411290695E1,-1.267564087E0,2.444205826E1
2.754841792E0,-4.577181702E0,-2.878334473E1,1.174607391E0,2.916866861E1
2.764827792E0,-5.942492523E0,-3.214520370E1,7.696994019E-1,3.269892622E1
2.774812792E0,-8.091872864E0,-3.754058395E1,-6.884783020E0,3.901504950E1
2.784797292E0,-7.592511292E0,-4.119718002E1,-1.072280182E1,4.324155812E1
2.794783292E0,-1.609303436E0,-3.955554382E1,-5.123994598E0,3.991849478E1
2.804768292E0,3.332070923E0,-3.429608093E1,-1.966161346E0,3.451361549E1
2.814753292E0,4.612957306E0,-2.776276703E1,8.244854736E-1,2.815546811E1
2.824739292E0,6.738986206E0,-2.029614395E1,5.650000763E0,2.211944626E1
2.834724292E0,7.523205414E0,-1.622251511E1,4.994064789E0,1.856634857E1
2.844709292E0,7.393724670E0,-1.411759232E1,3.341351624E0,1.628306507E1
2.854695292E0,7.150480499E0,-1.233929031E1,1.631157990E0,1.435437680E1
2.864680292E0,6.295159149E0,-1.048808990E1,6.162684631E-1,1.224780982E1
2.874665292E0,3.467090149E0,-8.286168823E0,-1.844165039E-1,8.984170374E0
2.884651292E0,1.161434784E0,-7.083869019E0,-1.478924561E-1,7.179972368E0
2.894636292E0,-3.529660034E-1,-6.139333191E0,-3.454815674E-1,6.159168332E0
2.904621292E0,-1.931283875E0,-4.993765411E0,-1.129102020E0,5.471966900E0
2.914607292E0,-2.879561920E0,-4.147874451E0,-1.870809631E0,5.384855429E0
2.924592292E0,-3.353626099E0,-3.164419556E0,-2.258952484E0,5.134513167E0
2.934577292E0,-3.262016602E0,-2.195035400E0,-2.334096222E0,4.572410512E0
2.944563292E0,-2.958298187E0,-1.268911285E0,-2.441123657E0,4.039894643E0
2.954548292E0,-2.328707428E0,-6.511459351E-1,-2.265538788E0,3.313538186E0
2.964533292E0,-1.559756470E0,-6.105802917E-1,-1.730551300E0,2.408413656E0
2.974519292E0,-9.616003418E-1,-9.232800293E-1,-9.958790588E-1,1.664000099E0
2.984504292E0,-6.518943787E-1,-1.513951721E0,-2.805166626E-1,1.672036391E0
2.994489292E0,-5.578898621E-1,-2.460732880E0,3.342549133E-1,2.545225678E0
3.004475292E0,-6.042933655E-1,-3.710783386E0,7.237449646E-1,3.828693065E0
3.014460292E0,-7.319778442E-1,-5.352718964E0,1.010398865E0,5.496207577E0
3.024445292E0,-9.238787842E-1,-7.090455322E0,1.191671906E0,7.249013079E0
3.034431292E0,-1.086291046E0,-8.534801788E0,1.177301788E0,8.683830336E0
3.044416292E0,-1.179098053E0,-9.674232330E0,1.023272095E0,9.799394327E0
3.054401292E0,-1.437610474E0,-1.070334229E1,8.135581970E-1,1.083005710E1
3.064387292E0,-1.866019592E0,-1.201656143E1,5.566923523E-1,1.217331853E1
3.074372292E0,-2.243235168E0,-1.451785995E1,1.944456482E-1,1.469143188E1
3.084357292E0,-2.327210541E0,-1.910102921E1,6.376739502E-2,1.924238270E1
3.094343292E0,-1.846410370E0,-2.445853821E1,7.427554321E-1,2.453937669E1
3.104328292E0,-3.643423462E-1,-2.727942215E1,1.255738678E0,2.731073961E1
3.114313292E0,2.532583466E0,-2.365021912E1,3.502716064E-1,2.378801239E1
3.124299292E0,3.692671051E0,-1.629227005E1,-6.483018494E-1,1.671807938E1
3.134284292E0,2.854114838E0,-1.187959625E1,-1.112935638E0,1.226822743E1
3.144269292E0,2.076032867E0,-9.302854614E0,-1.412163391E0,9.635726329E0
3.154255292E0,1.613345032E0,-7.176526337E0,-1.639540558E0,7.536146608E0
3.164240292E0,1.451381836E0,-5.184169464E0,-1.998793488E0,5.742586323E0
3.174225292E0,1.607058105E0,-3.517235870E0,-2.368075562E0,4.534464223E0
3.184211292E0,1.915416870E0,-2.675536194E0,-2.367177429E0,4.053497834E0
3.194196292E0,2.176623688E0,-2.812201996E0,-1.945204926E0,4.053392770E0
3.204181292E0,2.168839874E0,-3.999981995E0,-1.291065216E0,4.729753878E0
3.214167292E0,2.130220184E0,-5.882916412E0,-6.259982300E-1,6.287958121E0
3.224152292E0,2.023192749E0,-7.829318848E0,7.768844604E-2,8.086876901E0
3.234137292E0,1.716181183E0,-9.492510223E0,7.696994019E-1,9.677058714E0
3.244123292E0,1.310824127E0,-1.080378342E1,1.315763855E0,1.096226393E1
3.254108292E0,8.355624390E-1,-1.188738007E1,1.699565735E0,1.203729592E1
3.264093292E0,4.878355408E-1,-1.279045212E1,2.026036835E0,1.295910777E1
3.274079292E0,2.432441711E-1,-1.355625961E1,2.254611511E0,1.374462133E1
3.284064292E0,-8.158035278E-2,-1.380189880E1,2.312541046E0,1.399453150E1
3.294049292E0,-2.158511353E-1,-1.317829559E1,1.920655975E0,1.331927122E1
3.304035292E0,-3.814068604E-1,-1.197524734E1,1.377285919E0,1.206022125E1
3.314020292E0,-9.117539978E-1,-1.094658646E1,6.083349609E-1,1.100132364E1
3.324005292E0,-1.220412140E0,-1.027822632E1,-3.547622681E-1,1.035650512E1
3.333991292E0,-1.182540894E0,-9.757010193E0,-1.256337433E0,9.908382038E0
3.343976292E0,-7.776329041E-1,-9.453740845E0,-2.186503143E0,9.734409324E0
3.353961292E0,1.954934692E-1,-9.422006836E0,-3.979923706E0,1.022996692E1
3.363947292E0,1.267564087E0,-9.456285553E0,-5.489384766E0,1.100733393E1
3.373932292E0,1.631457367E0,-9.425749054E0,-5.272036743E0,1.092248918E1
3.383917292E0,1.617686005E0,-9.331145782E0,-4.503534851E0,1.048661126E1
3.393903292E0,1.661544800E0,-9.213789825E0,-3.835174713E0,1.011747099E1
3.403888292E0,1.768422546E0,-9.011859741E0,-3.363206177E0,9.780188653E0
3.413873292E0,1.888622589E0,-8.519832916E0,-2.841990051E0,9.177764197E0
3.423859292E0,2.080523529E0,-7.827971649E0,-2.233505402E0,8.402039316E0
3.433844292E0,2.270328827E0,-7.136409760E0,-1.865869904E0,7.717785157E0
3.443829292E0,2.331850891E0,-6.257736969E0,-1.536405029E0,6.852542664E0
3.453815292E0,2.510579224E0,-5.231620789E0,-1.156345367E0,5.916924769E0
3.463800292E0,2.353256378E0,-3.428769836E0,1.319057007E0,4.362818992E0
3.473785292E0,3.731440430E0,-3.368594971E0,-7.846682739E-1,5.087905665E0
3.483771292E0,4.728516998E0,-3.647465057E0,-2.931952972E0,6.652760523E0
3.493756292E0,3.933969269E0,-3.110830994E0,-1.678908691E0,5.288867371E0
3.503741292E0,2.975063324E0,-2.290836182E0,4.095483398E-1,3.777123513E0
3.513727292E0,2.586022339E0,-1.227297821E0,1.350042572E0,3.164867521E0
3.523712292E0,2.036664734E0,-1.071471863E0,-7.785310364E-1,2.429437335E0
3.533697292E0,2.960842896E-1,-2.293380890E0,-5.514682159E0,5.979881364E0
3.543683292E0,-5.795947266E-1,-3.581452332E0,-8.193960571E0,8.961234329E0
3.553668292E0,9.247769165E-1,-5.235512695E0,-7.614964600E0,9.287275778E0
3.563653292E0,3.443289642E0,-7.779322815E0,-5.337899780E0,1.004327044E1
3.573639292E0,4.506977692E0,-1.010743149E1,-1.840871887E0,1.121881582E1
3.583624292E0,3.755390625E0,-1.216505264E1,1.188378754E0,1.278685687E1
3.593609292E0,2.786754913E0,-1.512020737E1,2.035018158E0,1.550896427E1
3.603594292E0,2.753074951E0,-2.047322571E1,4.605921936E-1,2.066263627E1
3.613580292E0,4.100872192E0,-2.784749084E1,-5.108726349E0,2.860767352E1
3.623565292E0,5.727090454E0,-3.570330460E1,-1.191417435E1,3.807194603E1
3.633551292E0,6.075865173E0,-3.950824219E1,-9.236392822E0,4.102594655E1
3.643536292E0,6.233188019E0,-3.729374725E1,-1.694925385E0,3.784902891E1
3.653521292E0,6.143973541E0,-3.255879364E1,7.834707642E-1,3.314268065E1
3.663506292E0,5.856421509E0,-2.852168884E1,1.210981750E-1,2.911698941E1
3.673492292E0,5.031936035E0,-2.414209625E1,-7.194039917E-1,2.467141532E1
3.683477292E0,4.663701782E0,-2.032817734E1,-1.227597198E0,2.089238864E1
3.693462292E0,4.467908936E0,-1.770817566E1,-1.723665619E0,1.834428299E1
3.703448292E0,4.120930481E0,-1.576401855E1,-1.697470093E0,1.638193376E1
3.713433292E0,3.444487152E0,-1.407687698E1,-1.312919769E0,1.455151936E1
3.723418292E0,2.531385956E0,-1.224079514E1,-1.057999878E0,1.254449458E1
3.733404292E0,1.772763519E0,-1.000489471E1,-1.228794708E0,1.023477138E1
3.743389292E0,1.178499298E0,-7.258406067E0,-1.835632782E0,7.579107265E0
3.753374292E0,1.056502991E0,-4.348307648E0,-2.783910828E0,5.270117405E0
3.763360292E0,1.099164276E0,-1.623673553E0,-4.071982269E0,4.519459870E0
3.773345292E0,5.541476440E-1,4.387376404E-1,-4.385280762E0,4.441875470E0
3.783330292E0,-1.016386414E-1,1.393452301E0,-3.736829224E0,3.989477707E0
3.793316167E0,-4.745132446E-1,1.645079041E0,-2.716401215E0,3.210963006E0
3.803301167E0,-5.122348022E-1,1.605261841E0,-1.993255005E0,2.610041299E0
3.813286167E0,-4.897814941E-1,1.538051605E0,-1.430575104E0,2.156857385E0
3.823272167E0,-5.599855042E-1,1.511856079E0,-9.303153992E-1,1.861391767E0
3.833257167E0,-7.782316589E-1,1.362766113E0,-7.493417358E-1,1.739048312E0
3.843242167E0,-1.126407623E0,1.234033813E0,-1.131197662E0,2.017731830E0
3.853228167E0,-1.547332306E0,1.141077118E0,-1.942061462E0,2.732745319E0
3.863213167E0,-1.965712280E0,1.039139099E0,-2.307601318E0,3.204505996E0
3.873198167E0,-2.171085205E0,8.913963318E-1,-1.551523590E0,2.813436304E0
3.883184167E0,-2.086062012E0,8.262817383E-1,-1.625619507E-1,2.249627217E0
3.893169167E0,-1.783391418E0,7.214996338E-1,9.862989807E-1,2.161904797E0
3.903154167E0,-1.532363434E0,6.563850403E-1,1.481020203E0,2.229887857E0
3.913140167E0,-1.242117004E0,6.412664795E-1,1.612746277E0,2.134251134E0
3.923125167E0,-9.059161377E-1,5.950126648E-1,1.471889191E0,1.827890016E0
3.933110167E0,-7.625143433E-1,4.981640625E-1,1.158291321E0,1.473510889E0
3.943096167E0,-7.424560547E-1,4.448748779E-1,9.851014709E-1,1.311327403E0
3.953081167E0,-7.300318909E-1,4.611909485E-1,9.898915100E-1,1.313593870E0
3.963066167E0,-6.632707214E-1,4.740641785E-1,9.292675781E-1,1.236205131E0
3.973052167E0,-4.614903259E-1,4.463717651E-1,8.053253174E-1,1.029936862E0
3.983037167E0,-2.450404358E-1,4.043092346E-1,7.409591675E-1,8.789375747E-1
3.993022167E0,-1.070274353E-1,3.769161987E-1,6.219566345E-1,7.350855379E-1
4.003008167E0,5.089416504E-2,2.893482971E-1,4.029620361E-1,4.986893378E-1
4.012993167E0,1.916015625E-1,-2.469863892E-2,1.145118713E-1,2.245754889E-1
4.022978167E0,5.837860107E-2,-3.504212952E-1,-1.393601990E-1,3.816076653E-1
4.032964167E0,-2.963836670E-2,-4.893324280E-1,-2.375559998E-1,5.447545419E-1
4.042949167E0,-3.697311401E-2,-7.008425903E-1,-2.218386841E-1,7.360433067E-1
4.052934167E0,-7.229965210E-2,-1.220412140E0,8.517288208E-2,1.225515178E0
4.062920167E0,4.670288086E-1,-4.676724701E0,8.141569519E-1,4.769981277E0
4.072905167E0,1.441801758E0,-2.246992355E1,7.333250427E-1,2.252807188E1
4.082890167E0,-1.686692505E0,-4.058330658E1,4.681215363E0,4.088720438E1
4.092876167E0,-3.545676727E0,-4.961148239E1,9.593400421E0,5.065475634E1
4.102861167E0,-2.068398743E0,-6.269861755E1,7.318281555E-1,6.273699458E1
4.112846167E0,6.409371643E0,-6.287495087E1,-2.159080170E1,6.678699132E1
4.122832167E0,1.328667023E1,-4.665063950E1,-2.321866653E1,5.377661431E1
4.132817167E0,7.283853149E0,-3.170077789E1,-1.163186142E1,3.454408829E1
4.142802167E0,2.749482422E0,-2.089145599E1,-1.226399689E0,2.110726518E1
4.152788167E0,1.807341614E0,-1.429392563E1,3.736380157E0,1.488433170E1
4.162773167E0,1.420995026E0,-9.841434631E0,4.487518158E0,1.090921086E1
4.172758167E0,1.014290771E0,-7.078779602E0,4.286336517E0,8.337300952E0
4.182744167E0,9.211843872E-1,-5.164709930E0,3.550017700E0,6.334464067E0
4.192729167E0,7.399113464E-1,-3.853736115E0,2.414479065E0,4.607435295E0
4.202714167E0,2.887495422E-1,-3.059188385E0,1.516646118E0,3.426693059E0
4.212700167E0,1.040336609E-1,-2.414628754E0,8.904981995E-1,2.575702247E0
4.222685167E0,1.426533508E-1,-1.904190216E0,5.378315735E-1,1.983822865E0
4.232670167E0,2.424957275E-1,-1.431024170E0,3.135978699E-1,1.484916825E0
4.242656167E0,4.802014160E-1,-1.063538361E0,3.849993896E-1,1.228792812E0
4.252641167E0,3.719764709E-1,-7.875123596E-1,1.058299255E-1,8.773495225E-1
4.262626167E0,3.582051086E-1,-4.658312988E-1,-1.064286804E-1,5.971907257E-1
4.272612167E0,4.959187317E-1,-2.133064270E-1,-2.369572449E-1,5.895623429E-1
4.282597167E0,6.611750793E-1,-3.832031250E-2,-2.992277527E-1,7.267449208E-1
4.292582167E0,7.533833313E-1,5.568420410E-2,-2.959346008E-1,8.113349878E-1
4.302568167E0,7.447013855E-1,8.816665649E-2,-2.915936279E-1,8.045995008E-1
4.312553167E0,9.253756714E-1,-1.002914429E-2,-2.799179077E-1,9.668375003E-1
4.322538167E0,1.145567780E0,-5.400769043E-1,-2.637515259E-1,1.293666676E0
4.332524167E0,1.132694550E0,-1.690434723E0,-3.294648743E-1,2.061337818E0
4.342509167E0,1.440903625E0,-3.464994507E0,-5.140310669E-1,3.787692982E0
4.352494167E0,1.982926483E0,-6.154302063E0,-6.622229004E-1,6.499690030E0
4.362479167E0,2.553839264E0,-9.514215088E0,-6.789880371E-1,9.874381423E0
4.372465167E0,2.946472778E0,-1.295406189E1,-3.739224243E-1,1.329019335E1
4.382450167E0,3.080144806E0,-1.627415771E1,3.841012573E-1,1.656752954E1
4.392435167E0,3.266656952E0,-2.042906754E1,1.608554993E0,2.075103123E1
4.402421167E0,3.316353607E0,-2.605122620E1,2.861000519E0,2.641684901E1
4.412406167E0,2.735860748E0,-3.133179520E1,4.072730713E0,3.171361631E1
4.422391167E0,1.817969513E0,-3.157429092E1,4.834346924E0,3.199393334E1
4.432377167E0,6.756948853E-1,-2.371054367E1,4.065845032E0,2.406610772E1
4.442362167E0,-3.996688843E-1,-1.581042206E1,1.566492462E0,1.589286253E1
4.452347167E0,-6.017486572E-1,-1.188708069E1,-9.081614685E-1,1.193689851E1
4.462333167E0,-5.194198608E-1,-9.043743439E0,-2.503843231E0,9.398314918E0
4.472318167E0,-3.052153015E-1,-6.204148407E0,-3.809577942E0,7.286802998E0
4.482303167E0,-1.643582153E-1,-4.117038574E0,-4.788242798E0,6.316984196E0
4.492289167E0,-5.598358154E-2,-2.908601532E0,-5.197940826E0,5.956650558E0
4.502274167E0,-7.813751221E-2,-2.536026306E0,-5.092709656E0,5.689747493E0
4.512259167E0,-7.469467163E-2,-2.705024872E0,-4.017645264E0,4.843987233E0
4.522245167E0,6.885681152E-2,-3.409310303E0,-2.485431519E0,4.219657312E0
4.532230167E0,2.330653381E-1,-4.595892792E0,-1.083147583E0,4.727553140E0
4.542215167E0,4.096980286E-1,-6.228996735E0,2.829116821E-1,6.248863242E0
4.552201167E0,5.792953491E-1,-8.187673645E0,1.608554993E0,8.364271157E0
4.562186167E0,8.213420105E-1,-1.005788452E1,2.760260010E0,1.046205903E1
4.572171167E0,1.105301514E0,-1.155537048E1,3.824546814E0,1.222192443E1
4.582157167E0,1.166524200E0,-1.262908768E1,4.388723602E0,1.342071269E1
4.592142167E0,1.178199921E0,-1.330717758E1,4.609813843E0,1.413221546E1
4.602127167E0,1.328487396E0,-1.329729813E1,4.647385712E0,1.414854092E1
4.612113167E0,1.435814209E0,-1.255005203E1,4.334536285E0,1.335490821E1
4.622098167E0,1.239572296E0,-1.148337021E1,3.561394043E0,1.208668103E1
4.632083167E0,8.657995605E-1,-1.083387085E1,2.678979034E0,1.119371677E1
4.642069167E0,5.077441406E-1,-1.065604065E1,1.949695587E0,1.084482915E1
4.652054167E0,3.695814514E-1,-1.060454773E1,1.248403931E0,1.068417219E1
4.662039167E0,4.221221924E-1,-1.057131683E1,4.927752686E-1,1.059121118E1
4.672025167E0,5.405259705E-1,-1.059287201E1,-2.974314880E-1,1.061082331E1
4.682010167E0,7.649093628E-1,-1.058823166E1,-1.213975525E0,1.068501159E1
4.691995167E0,9.933343506E-1,-1.055664734E1,-2.306254120E0,1.085118999E1
4.701981167E0,1.118324432E0,-1.051937485E1,-4.314328308E0,1.142459301E1
4.711966167E0,1.311871948E0,-1.046743286E1,-7.160509644E0,1.274994341E1
4.721951167E0,1.180445251E0,-1.025337799E1,-6.655908966E0,1.228113738E1
4.731937167E0,5.284011841E-1,-9.877808990E0,-4.549189911E0,1.088785778E1
4.741922167E0,2.691403198E-1,-9.295519867E0,-2.106719055E0,9.535061158E0
4.751907167E0,4.120930481E-1,-8.872349854E0,-2.740800476E-1,8.886142722E0
4.761893167E0,7.851173401E-1,-8.428822174E0,-1.416055298E-1,8.466493052E0
4.771878167E0,5.758525085E-1,-8.079598389E0,-8.526269531E-1,8.144844317E0
4.781863167E0,1.663041687E-1,-7.594307556E0,-1.084345093E0,7.673132907E0
4.791849792E0,-1.299298096E-1,-6.965315552E0,-6.590794373E-1,6.997634471E0
4.801834792E0,-1.047821045E-2,-6.054459686E0,1.116228790E0,6.156505388E0
4.811819792E0,2.523751831E-1,-4.563560028E0,3.073408813E0,5.507777691E0
4.821805792E0,9.160949707E-1,-4.622387695E0,1.101708984E-1,4.713579916E0
4.831790792E0,2.154320068E0,-5.108426971E0,-1.129401398E0,5.657973895E0
4.841775792E0,3.106939087E0,-4.801864471E0,-2.296674042E0,6.163252757E0
4.851761792E0,4.161196747E0,-5.210514679E0,-5.417085114E0,8.591264908E0
4.861746792E0,4.803960114E0,-6.280938721E0,-9.622739410E0,1.245493227E1
4.871731792E0,4.738845520E0,-7.306605835E0,-1.159743301E1,1.450322717E1
4.881717792E0,3.367247772E0,-7.306456146E0,-6.397995300E0,1.027895923E1
4.891702792E0,2.222877502E0,-6.111491089E0,-1.391206970E0,6.650335672E0
4.901687792E0,2.529440002E0,-4.944368134E0,-5.658233643E-2,5.554101595E0
4.911673792E0,1.610201569E0,-4.556374969E0,-1.088386688E0,4.953573209E0
4.921658792E0,6.358776855E-1,-5.781427460E0,-4.041595459E-2,5.816431668E0
4.931643792E0,2.877017212E0,-9.127269745E0,9.383985901E-1,9.615865689E0
4.941628792E0,5.081932068E0,-1.123458755E1,9.361532593E-1,1.236601690E1
4.951614792E0,6.986571350E0,-1.146630569E1,1.819915466E0,1.354992390E1
4.961599792E0,4.804858246E0,-1.105151825E1,3.976031799E0,1.268982062E1
4.971584792E0,4.109254761E0,-1.723276428E1,2.640808411E0,1.791167241E1
4.981570792E0,8.917256470E0,-2.940350510E1,1.251098328E0,3.075140358E1
4.991555792E0,1.635319336E1,-4.254243256E1,-2.548151093E0,4.564842357E1
5.001540792E0,1.804482559E1,-4.746075485E1,-8.328081665E0,5.145382324E1
5.011526792E0,1.278850616E1,-4.149296494E1,-1.095077774E1,4.477869540E1
5.021511792E0,7.338190155E0,-3.307986008E1,-4.596790924E0,3.419439522E1
5.031496792E0,5.312452698E0,-2.465448074E1,-8.430468750E-1,2.523442693E1
5.041482792E0,5.860463104E0,-1.883563110E1,-5.170248413E-1,1.973305201E1
5.051467792E0,5.865851898E0,-1.542467422E1,-7.023394775E-1,1.651732648E1
5.061452792E0,4.283342743E0,-1.348306183E1,-1.093027039E0,1.418924556E1
5.071438792E0,1.841919708E0,-1.136586456E1,-1.218166809E0,1.157840558E1
5.081423792E0,-4.912783813E-1,-9.002129974E0,-1.159937897E0,9.089837977E0
5.091408792E0,-1.971250763E0,-6.250551910E0,-9.330097961E-1,6.620100908E0
5.101394792E0,-2.700833588E0,-3.644770660E0,-1.583856354E0,4.804940810E0
5.111379792E0,-3.178340607E0,-1.225950623E0,-2.963686981E0,4.515334369E0
5.121364792E0,-2.741698608E0,6.261479187E-1,-4.772824860E0,5.539749960E0
5.131350792E0,-2.223176880E0,1.592987366E0,-5.407804413E0,6.060072009E0
5.141335792E0,-1.555864563E0,1.785337372E0,-4.752766571E0,5.310078544E0
5.151320792E0,-8.984317017E-1,1.775008850E0,-4.094435577E0,4.552168564E0
5.161306792E0,-4.043092346E-1,1.698368225E0,-3.337310028E0,3.766372102E0
5.171291792E0,-5.134323120E-2,1.555864563E0,-2.345771942E0,2.815314666E0
5.181276792E0,1.158590698E-1,1.399739227E0,-1.198557587E0,1.846410983E0
5.191262792E0,1.950444031E-1,1.228645020E0,-2.209405518E-1,1.263497381E0
5.201247792E0,2.865042114E-1,1.074315948E0,4.595443726E-1,1.203087882E0
5.211232792E0,3.245251465E-1,9.722282410E-1,7.783813477E-1,1.287020530E0
5.221218792E0,4.047583008E-1,9.789642334E-1,9.345066833E-1,1.412622736E0
5.231203792E0,4.546046448E-1,9.795629883E-1,1.071471863E0,1.521269530E0
5.241188792E0,4.140390015E-1,8.964857483E-1,1.149459686E0,1.515378686E0
5.251174792E0,3.547622681E-1,7.244934082E-1,1.221759338E0,1.464050152E0
5.261159792E0,3.225791931E-1,6.099815369E-1,1.279539185E0,1.453738400E0
5.271144792E0,2.872526550E-1,5.406756592E-1,1.255289612E0,1.396637485E0
5.281130792E0,2.980302429E-1,5.110372925E-1,1.234782257E0,1.369185291E0
5.291115792E0,3.242257690E-1,5.200186157E-1,1.277443542E0,1.416828753E0
5.301100792E0,3.231779480E-1,5.420228577E-1,1.275796967E0,1.423337860E0
5.311086792E0,3.005749512E-1,5.483097839E-1,1.148262177E0,1.307476557E0
5.321071792E0,2.591111755E-1,5.146298218E-1,1.042581940E0,1.191200888E0
5.331056792E0,2.329156494E-1,4.766088867E-1,9.376501465E-1,1.077308465E0
5.341042792E0,2.719844055E-1,4.556524658E-1,7.896080017E-1,9.513545516E-1
5.351027792E0,2.911445618E-1,4.126918030E-1,6.153703308E-1,7.960906507E-1
5.361012792E0,3.369493103E-1,3.706292725E-1,4.287084961E-1,6.593116637E-1
5.370998792E0,3.761677551E-1,1.675016785E-1,2.194436646E-1,4.665988793E-1
5.380983792E0,2.089654541E-1,-2.194436646E-1,-4.385879517E-2,3.061791581E-1
5.390968792E0,1.288819885E-1,-3.504212952E-1,-1.812730408E-1,4.150488723E-1
5.400954792E0,1.540296936E-1,-5.004093933E-1,-2.164498901E-1,5.665556128E-1
5.410939792E0,2.613565063E-1,-8.336164856E-1,1.230441284E-1,8.822491292E-1
5.420924792E0,4.206253052E-1,-1.593885498E0,1.072968750E0,1.966890583E0
5.430909792E0,-3.418890381E-1,-8.440048828E0,2.011367340E0,8.683139462E0
5.440895792E0,-5.096900940E0,-3.934029144E1,2.829116821E-1,3.967010170E1
5.450880792E0,-1.250379822E1,-6.753191666E1,-1.615889740E1,7.055504732E1
5.460865792E0,-7.958949280E0,-7.328146042E1,-1.528770905E1,7.528101595E1
5.470851792E0,4.680466919E0,-6.098872330E1,-8.066126404E0,6.169759748E1
5.480836792E0,8.320896606E0,-4.513159836E1,-4.430786133E-2,4.589227009E1
5.490821792E0,3.372337189E0,-2.966605911E1,3.772006073E0,3.009444718E1
5.500807792E0,6.617738342E-1,-1.835752533E1,2.603984985E0,1.855309728E1
5.510792792E0,3.966751099E-2,-1.252550308E1,1.695224762E0,1.263976218E1
5.520777792E0,-2.941383362E-1,-8.820856934E0,1.444346466E0,8.943163373E0
5.530763792E0,-2.883004761E-1,-6.325995026E0,1.075962524E0,6.423318892E0
5.540748792E0,-1.933978271E-1,-4.931644592E0,7.991880798E-1,4.999722261E0
5.550733792E0,-3.951782227E-2,-4.008663940E0,5.810916138E-1,4.050754955E0
5.560719792E0,1.279838562E-1,-3.630699921E0,6.677613831E-1,3.693814701E0
5.570704792E0,6.499484253E-1,-3.582350464E0,1.047371979E0,3.788489919E0
5.580689792E0,1.661395111E0,-3.844754791E0,3.823199615E0,5.670910722E0
5.590675792E0,2.403551788E0,-3.751349030E0,4.159849548E0,6.095410487E0
5.600660792E0,2.642005920E0,-3.040626984E0,1.156495056E0,4.190833873E0
5.610645792E0,2.989882507E0,-2.416874084E0,-3.775149536E-1,3.863055175E0
5.620631792E0,3.294798431E0,-1.885628815E0,-1.360071716E0,4.032503912E0
5.630616792E0,3.439846802E0,-1.494342499E0,-2.346370697E0,4.423919187E0
5.640601792E0,3.257376251E0,-1.370400238E0,-2.836451569E0,4.531440649E0
5.650587792E0,2.712658997E0,-1.338965607E0,-2.937491455E0,4.216657892E0
5.660572792E0,1.724264374E0,-1.467099152E0,-2.588117981E0,3.438578519E0
5.670557792E0,4.303550720E-1,-2.026934967E0,-1.812880096E0,2.753217226E0
5.680543792E0,-3.360511780E-1,-2.850372620E0,-1.071172485E0,3.063489017E0
5.690528792E0,-7.795788574E-1,-3.916156311E0,-5.661227417E-1,4.032929259E0
5.700513792E0,-1.054407349E0,-5.551804962E0,-1.594184875E-1,5.653293505E0
5.710499792E0,-1.283431091E0,-7.945626984E0,3.038681030E-1,8.054347854E0
5.720484792E0,-1.497186584E0,-1.071980804E1,8.238867188E-1,1.085516658E1
5.730469792E0,-1.775457916E0,-1.337034622E1,1.431024170E0,1.356341547E1
5.740455792E0,-2.243833923E0,-1.615365829E1,2.238744507E0,1.646169627E1
5.750440792E0,-3.143912201E0,-1.927900909E1,2.821333008E0,1.973636987E1
5.760425792E0,-3.620670776E0,-2.236304581E1,2.694247284E0,2.281390022E1
5.770411792E0,-4.166136475E0,-2.499412445E1,2.087259521E0,2.542478323E1
5.780396792E0,-4.879103851E0,-2.507166321E1,1.423240356E0,2.558162551E1
5.790381667E0,-4.232298889E0,-1.924233536E1,4.808001709E-1,1.970814534E1
5.800367667E0,-3.215463409E0,-1.233045868E1,-3.658392334E-1,1.274806866E1
5.810352667E0,-2.889591064E0,-8.815917206E0,-8.818162537E-1,9.319213089E0
5.820337667E0,-2.618055725E0,-7.037764893E0,-1.212628326E0,7.606235463E0
5.830323667E0,-2.207160187E0,-5.866899719E0,-1.279838562E0,6.397660131E0
5.840308667E0,-1.589993591E0,-4.861739960E0,-1.309027863E0,5.279976231E0
5.850293667E0,-8.907975769E-1,-4.131558380E0,-1.285975800E0,4.417808136E0
5.860279667E0,-3.005749512E-1,-3.738775177E0,-1.139131165E0,3.920000630E0
5.870264667E0,2.158511353E-1,-3.894900513E0,-8.102650452E-1,3.984139952E0
5.880249667E0,7.659571838E-1,-5.002896423E0,-3.879931641E-1,5.076041935E0
5.890234667E0,1.116977234E0,-6.918912048E0,1.249900818E-1,7.009608020E0
5.900220667E0,1.272503815E0,-8.968749390E0,5.700146484E-1,9.076488763E0
5.910205667E0,1.422042847E0,-1.088835754E1,1.202898560E0,1.104651532E1
5.920190667E0,1.471589813E0,-1.243494141E1,2.102677460E0,1.269703103E1
5.930176667E0,1.807790680E0,-1.344114899E1,1.839973755E0,1.368642015E1
5.940161667E0,2.127076721E0,-1.308653641E1,8.867559814E-1,1.328789775E1
5.950146667E0,9.357041931E-1,-1.202629120E1,1.077010345E0,1.211062235E1
5.960132667E0,-1.260379028E-1,-1.086799988E1,1.263223114E0,1.094189378E1
5.970117667E0,-5.728587341E-1,-1.001851639E1,1.128503265E0,1.009813633E1
5.980102667E0,-1.020128632E0,-9.498348083E0,1.027313690E0,9.608051424E0
5.990088667E0,-1.568438416E0,-9.323511658E0,1.012644196E0,9.508591744E0
6.000073667E0,-2.193688202E0,-9.393565979E0,9.855505371E-1,9.696528224E0
6.010058667E0,-2.767295380E0,-9.624236298E0,9.241781616E-1,1.005673671E1
6.020044667E0,-3.002456360E0,-9.924811249E0,6.348298645E-1,1.038843739E1
6.030029667E0,-2.856060791E0,-1.028990204E1,1.218466187E-1,1.067960738E1
6.040014667E0,-2.599045258E0,-1.047506699E1,-7.933502197E-1,1.082180526E1
6.050000667E0,-2.699935455E0,-1.005144791E1,-1.862427063E0,1.057307387E1
6.059985667E0,-1.790875854E0,-1.062236069E1,3.698808289E-1,1.077861748E1
6.069970667E0,-1.029259644E0,-1.013153137E1,2.094145203E-1,1.018583123E1
6.079956667E0,-3.671864319E-1,-9.670340424E0,1.288819885E-1,9.678167200E0
6.089941667E0,1.850152588E-1,-9.284143524E0,-1.059796143E-1,9.286591587E0
6.099926667E0,4.990621948E-1,-8.927734680E0,-8.741821289E-1,8.984303200E0
6.109912667E0,8.078700256E-1,-8.782686310E0,-1.681453400E0,8.978614499E0
6.119897667E0,1.121168518E0,-8.759185181E0,-2.475552063E0,9.171079647E0
6.129882667E0,1.222807159E0,-8.725205841E0,-2.603535919E0,9.187103657E0
6.139868667E0,1.128353577E0,-8.597671051E0,-2.230811005E0,8.953750445E0
6.149853667E0,1.046324158E0,-8.362510071E0,-1.597478027E0,8.577779723E0
6.159838667E0,1.005758514E0,-8.095914459E0,-9.774673462E-1,8.216497035E0
6.169824667E0,9.051676941E-1,-7.879464569E0,-5.869294739E-1,7.952972819E0
6.179809667E0,9.618997192E-1,-7.579787750E0,-5.929170227E-1,7.663549048E0
6.189794667E0,1.260229340E0,-7.266040192E0,-1.064885559E0,7.451006597E0
6.199780667E0,1.665436707E0,-6.953939209E0,-1.783840485E0,7.369737907E0
6.209765667E0,1.744622040E0,-6.460714874E0,-2.281106415E0,7.070218471E0
6.219750667E0,1.661245422E0,-6.582411804E0,-3.351680145E0,7.571105686E0
6.229736667E0,7.123686218E-1,-7.415579224E0,-6.813980255E0,1.009597005E1
6.239721667E0,-9.265731812E-2,-8.340206451E0,-1.113848740E1,1.391522657E1
6.249706667E0,5.360353088E-1,-8.932075653E0,-1.410621597E1,1.670492857E1
6.259692667E0,1.007854156E0,-7.915689240E0,-1.239886642E1,1.474468700E1
6.269677667E0,1.937271423E0,-5.288352814E0,-9.404942322E-1,5.710010985E0
6.279662667E0,2.597847748E0,-3.091970215E0,2.676284637E0,4.844748930E0
6.289647667E0,4.038601685E-1,-1.576072540E0,1.409618683E0,2.152703537E0
6.299633667E0,-5.659730530E-1,-1.672472076E0,2.103874969E0,2.746593933E0
6.309618667E0,1.444346466E0,-5.876180420E0,1.893113251E0,6.340308417E0
6.319603667E0,1.403631134E0,-9.243877258E0,2.306553497E0,9.630142063E0
6.329589667E0,-1.979633331E0,-1.147199387E1,2.918780365E0,1.200186945E1
6.339574667E0,-3.540587311E0,-1.764111511E1,2.959645386E0,1.823469774E1
6.349559667E0,-2.609673157E0,-2.894875076E1,2.009122009E0,2.913549615E1
6.359545667E0,-2.326162720E-1,-4.152200455E1,8.396040344E-1,4.153114382E1
6.369530667E0,3.365451508E0,-4.726615952E1,-6.527925110E-1,4.739031797E1
6.379515667E0,7.197183380E0,-4.602958099E1,-4.671186218E0,4.682244927E1
6.389501667E0,1.094419144E1,-4.212869293E1,-7.288942566E0,4.413310297E1
6.399486667E0,1.139310791E1,-3.379372559E1,-5.029840393E0,3.601552570E1
6.409471667E0,9.692045288E0,-2.492616577E1,-2.709365845E0,2.688103691E1
6.419457667E0,8.004903717E0,-1.875764328E1,-2.790646820E0,2.058434781E1
6.429442667E0,6.651268616E0,-1.449420914E1,-3.327580261E0,1.629092579E1
6.439427667E0,4.451742554E0,-1.086725143E1,-3.097508698E0,1.214535819E1
6.449413667E0,1.800904999E0,-8.740324402E0,-2.672093353E0,9.315396522E0
6.459398667E0,-2.619552612E-1,-6.787635040E0,-2.280956726E0,7.165429058E0
6.469383667E0,-1.722617798E0,-4.301904144E0,-2.226619720E0,5.141169782E0
6.479369667E0,-2.447111206E0,-1.238674164E0,-3.070564728E0,4.117163427E0
6.489354667E0,-2.704875183E0,1.450633392E0,-4.182602234E0,5.187952240E0
6.499339667E0,-2.608924713E0,3.110531616E0,-4.670737152E0,6.188511989E0
6.509325667E0,-2.150727539E0,3.987857208E0,-4.262835388E0,6.220964524E0
6.519310667E0,-1.531016235E0,4.223018188E0,-3.450474701E0,5.664244786E0
6.529295667E0,-9.177415466E-1,3.994293823E0,-2.357148285E0,4.727872749E0
6.539281667E0,-4.314028931E-1,3.557202759E0,-1.112336884E0,3.751945264E0
6.549266667E0,-1.428030396E-1,3.383114777E0,-2.649490356E-2,3.386230984E0
6.559251667E0,1.721420288E-2,3.198548584E0,8.605604553E-1,3.312336588E0
6.569237667E0,1.278341675E-1,2.837798767E0,1.129700775E0,3.057068409E0
6.579222667E0,2.662962341E-1,2.223775635E0,8.652008057E-1,2.400971510E0
6.589207667E0,3.686833191E-1,1.404978333E0,5.842350769E-1,1.565637931E0
6.599193667E0,3.841012573E-1,6.081852722E-1,4.540058899E-1,8.506141600E-1
6.609178667E0,3.451821899E-1,-6.586303711E-3,3.106040955E-1,4.644017956E-1
6.619163667E0,2.631527710E-1,-4.432283020E-1,1.992356873E-1,5.526260649E-1
6.629149667E0,3.158432007E-2,-6.649172974E-1,1.889071655E-1,6.919526709E-1
6.639134667E0,-2.359094238E-1,-6.878196716E-1,2.140548706E-1,7.580030637E-1
6.649119667E0,-4.692741394E-1,-5.957611084E-1,2.613565063E-1,8.021575529E-1
6.659105667E0,-5.936654663E-1,-4.812492371E-1,4.438270569E-1,8.837544741E-1
6.669090667E0,-3.815565491E-1,-3.803590393E-1,6.491999817E-1,8.436344085E-1
6.679075667E0,7.589218140E-2,-3.842509460E-1,9.264234924E-1,1.005817528E0
6.689061667E0,3.959266663E-1,-3.721261597E-1,1.210682373E0,1.327022084E0
6.699046667E0,6.089337158E-1,-3.646417236E-1,1.296454010E0,1.478024647E0
6.709031667E0,7.490423584E-1,-4.408332825E-1,1.106648712E0,1.407149534E0
6.719017667E0,7.279362488E-1,-5.662724304E-1,8.596623230E-1,1.260783470E0
6.729002667E0,5.806425476E-1,-7.711962891E-1,7.330256653E-1,1.212112252E0
6.738987667E0,5.063969421E-1,-1.005309448E0,5.658233643E-1,1.259857543E0
6.748972667E0,4.465214539E-1,-1.397344208E0,3.701802063E-1,1.512939400E0
6.758958667E0,3.414399719E-1,-2.239492950E0,1.950444031E-1,2.273752900E0
6.768943667E0,2.932402039E-1,-3.948938141E0,4.745132446E-2,3.960095186E0
6.778928667E0,1.423539734E-1,-7.708370361E0,7.035369873E-2,7.710005702E0
6.788914667E0,-2.930905151E-1,-1.469718704E1,5.287005615E-1,1.470961363E1
6.798899667E0,-2.079026642E0,-2.588866425E1,7.023394775E-1,2.598150436E1
6.808884667E0,-5.731431427E0,-4.214426056E1,-6.190826111E0,4.298039474E1
6.818870667E0,-1.034004776E1,-5.111914719E1,-7.901917877E0,5.274963604E1
6.828855667E0,-1.281140854E1,-4.900928467E1,-1.194695618E1,5.204586376E1
6.838840667E0,-7.071145477E0,-4.228766235E1,-9.619895325E0,4.394075411E1
6.848826667E0,2.323168945E0,-3.299259155E1,-1.996997223E0,3.313451689E1
6.858811667E0,2.971620483E0,-2.281345917E1,4.737947388E0,2.348898876E1
6.868796667E0,8.984317017E-1,-1.486992783E1,3.078348541E0,1.521177711E1
6.878782667E0,5.632636871E0,-1.313039520E1,5.085674286E0,1.516568361E1
6.888767667E0,1.286065613E1,-9.999206543E0,6.515800323E0,1.754526322E1
6.898752667E0,1.029633865E1,-9.499545593E0,3.508254547E0,1.444173833E1
6.908738667E0,6.265071716E0,-1.090482330E1,9.880952454E-1,1.261517448E1
6.918723667E0,3.651506653E0,-1.260873001E1,4.921765137E-1,1.313605005E1
6.928708667E0,2.009720764E0,-1.179666870E1,1.545386353E0,1.206600965E1
6.938694667E0,8.463400269E-1,-9.479337616E0,1.645079041E0,9.658178820E0
6.948679667E0,-3.890409851E-1,-7.076983337E0,5.864804077E-1,7.111891824E0
6.958664667E0,-1.771715698E0,-5.238207092E0,-7.568261719E-1,5.581270098E0
6.968650667E0,-2.950065308E0,-3.746708679E0,-2.069147186E0,5.198276765E0
6.978635667E0,-3.463347931E0,-2.279160461E0,-2.905158691E0,5.062538723E0
6.988620667E0,-3.405418396E0,-1.075663147E0,-2.825224915E0,4.553660228E0
6.998606667E0,-2.734363861E0,-4.397854614E-1,-2.240690460E0,3.562422029E0
7.008591667E0,-1.812431030E0,-3.300636292E-1,-1.757944336E0,2.546412482E0
7.018576667E0,-1.099763031E0,-4.013154602E-1,-1.397643585E0,1.823167687E0
7.028562667E0,-7.207511902E-1,-9.132508850E-1,-9.445358276E-1,1.498551763E0
7.038547667E0,-7.539820862E-1,-1.591340790E0,-5.713618469E-1,1.851299235E0
7.048532667E0,-1.031504974E0,-2.562072144E0,-1.627116394E-1,2.766711271E0
7.058517667E0,-1.426683197E0,-3.751199341E0,2.546205139E-1,4.021411822E0
7.068503667E0,-2.029629364E0,-5.209616547E0,5.722599792E-1,5.620229657E0
7.078488667E0,-2.666704559E0,-6.960375824E0,9.090596008E-1,7.508963589E0
7.088473667E0,-3.196303253E0,-8.962163086E0,1.422192535E0,9.620777166E0
7.098459667E0,-3.867806854E0,-1.150372787E1,2.115401001E0,1.231952135E1
7.108444667E0,-4.575684814E0,-1.481080078E1,2.712808685E0,1.573709129E1
7.118429667E0,-5.358706512E0,-1.892409714E1,2.952011261E0,1.988847803E1
7.128415667E0,-5.996230774E0,-2.325818436E1,2.696791992E0,2.416962164E1
7.138400667E0,-5.450166321E0,-2.574526245E1,2.092798004E0,2.639891390E1
7.148385667E0,-2.415377197E0,-2.293904800E1,1.370400238E0,2.310653516E1
7.158371667E0,-1.995350647E-1,-1.655302780E1,4.275109863E-1,1.655974967E1
7.168356667E0,-4.587959290E-1,-1.221100708E1,-5.662724304E-1,1.223273690E1
7.178341667E0,-6.870712280E-1,-9.932744751E0,-1.778002625E0,1.011398925E1
7.188327667E0,-7.174580383E-1,-8.589438171E0,-2.922821960E0,9.101432983E0
7.198312667E0,-4.546046448E-1,-7.493417358E0,-3.922592926E0,8.470224575E0
7.208297667E0,4.999603271E-1,-6.473887482E0,-5.167404327E0,8.298388213E0
7.218283667E0,2.599045258E0,-6.099366302E0,-6.838529205E0,9.524851035E0
7.228268667E0,4.919519806E0,-6.672973480E0,-5.967789917E0,1.021492862E1
7.238253667E0,7.158114624E0,-8.070766754E0,-2.498454437E0,1.107330825E1
7.248239667E0,7.523055725E0,-8.193212128E0,-6.556365967E-1,1.114248409E1
7.258224667E0,7.577991486E0,-7.818092194E0,4.586462402E-1,1.089765465E1
7.268209667E0,6.436165924E0,-7.613467712E0,8.828640747E-1,1.000842502E1
7.278195667E0,4.112847290E0,-7.814050598E0,1.060245209E0,8.893762954E0
7.288180667E0,1.275048523E0,-8.524772644E0,1.938319244E0,8.834850246E0
7.298165667E0,-1.284628601E0,-9.168733521E0,1.774859161E0,9.426880187E0
7.308151667E0,-3.525768127E0,-1.015877472E1,1.879341888E0,1.091621137E1
7.318136667E0,-4.957690430E0,-1.080273560E1,2.330803070E0,1.211240825E1
7.328121667E0,-5.539380798E0,-1.100601288E1,2.558479614E0,1.258423129E1
7.338107667E0,-5.227878571E0,-1.099089432E1,2.382295990E0,1.240184690E1
7.348092667E0,-4.469405823E0,-1.114297806E1,1.419797516E0,1.208955638E1
7.358077667E0,-4.237088928E0,-1.137888748E1,5.212161255E-1,1.215333984E1
7.368063667E0,-4.295018463E0,-1.159848083E1,3.080593872E-1,1.237201850E1
7.378048667E0,-4.315525818E0,-1.167078049E1,7.514373779E-1,1.246577468E1
7.388033667E0,-3.807931366E0,-1.138248001E1,8.551716614E-1,1.203297599E1
7.398019667E0,-2.884801025E0,-1.092113937E1,4.822970581E-1,1.130601489E1
7.408004667E0,-1.991159363E0,-1.060275146E1,-1.537303162E-1,1.078919308E1
7.417989667E0,-1.397344208E0,-1.046458878E1,-8.476872253E-1,1.059144762E1
7.427974667E0,-1.006506958E0,-1.036863831E1,-1.573228455E0,1.053550019E1
7.437960667E0,-6.324348450E-1,-1.015697845E1,-2.426903229E0,1.046202870E1
7.447945667E0,-1.106199646E-1,-9.878856812E0,-3.575165405E0,1.050646736E1
7.457931667E0,3.076103210E-1,-9.605974274E0,-4.078867950E0,1.044061922E1
7.467916667E0,7.629634094E-1,-9.170978851E0,-3.607049103E0,9.884319374E0
7.477901667E0,7.364685059E-1,-8.856482849E0,-2.588716736E0,9.256410139E0
7.487886667E0,5.098397827E-1,-8.627908173E0,-1.482816467E0,8.769234899E0
7.497872667E0,1.654060364E-1,-8.466693420E0,-5.474116516E-1,8.485983511E0
7.507857667E0,-1.908531189E-1,-8.400081940E0,-9.729766846E-3,8.402255422E0
7.517842667E0,-3.059637451E-1,-8.324489136E0,2.032772827E-1,8.332589924E0
7.527828667E0,-2.344125366E-1,-8.068521423E0,1.411564636E-1,8.073159997E0
7.537813667E0,-1.904040527E-1,-7.618856506E0,-1.212478638E-1,7.622199762E0
7.547798667E0,-2.627037048E-1,-7.053182831E0,-3.219804382E-1,7.065413837E0
7.557784667E0,-7.008425903E-1,-6.747219086E0,-5.035528564E-1,6.802184297E0
7.567769667E0,-1.471589813E0,-6.377787323E0,-1.711241455E0,6.765359934E0
7.577754667E0,-1.872905273E0,-6.006858673E0,-5.272036743E-1,6.314116644E0
7.587740667E0,-1.164129181E0,-6.139033813E0,1.833686829E-1,6.251124458E0
7.597725667E0,-1.007405090E-1,-6.753955078E0,-9.310638428E-1,6.818572998E0
7.607710667E0,1.891316986E0,-7.651638336E0,-6.133046265E0,9.986936750E0
7.617696667E0,3.640279999E0,-8.644523621E0,-1.132215546E1,1.470274230E1
7.627681667E0,2.850671997E0,-8.912316742E0,-1.143322449E1,1.477411056E1
7.637666667E0,1.899250488E0,-8.000413055E0,-8.760083313E0,1.201469189E1
7.647652667E0,1.345701599E0,-6.459367676E0,-5.861510925E0,8.825624844E0
7.657637667E0,6.670129395E-1,-5.072501678E0,-2.932102661E0,5.896813169E0
7.667622667E0,1.664538574E-1,-4.170627136E0,-4.167333984E-1,4.194699551E0
7.677608667E0,3.995191956E-1,-4.018693085E0,2.104473724E0,4.553934492E0
7.687593667E0,5.703140259E-1,-4.440515900E0,4.037553864E0,6.028704732E0
7.697578667E0,5.980064392E-1,-5.392087097E0,5.267097015E0,7.561383864E0
7.707564667E0,-1.410067749E-1,-7.506140900E0,6.612798615E0,1.000455594E1
7.717549667E0,-1.679058380E0,-1.379037277E1,5.993536377E0,1.512997345E1
7.727534667E0,-3.180885315E0,-2.565949081E1,3.160078583E0,2.604829355E1
7.737520667E0,-4.247417450E0,-4.274077011E1,-1.607656860E-1,4.295159869E1
7.747505667E0,-2.972069550E0,-5.277455475E1,-7.232659607E0,5.335070938E1
7.757490667E0,3.548820190E0,-5.121809143E1,-1.967987549E1,5.498349310E1
7.767476667E0,4.709506531E0,-4.508459610E1,-1.368364471E1,4.735021003E1
7.777461667E0,1.643133087E0,-3.533761505E1,-1.646875305E0,3.541410908E1
7.787446667E0,2.576741638E0,-2.529140625E1,9.813592529E-1,2.544126360E1
7.797432292E0,4.864584045E0,-1.896556091E1,-3.727249146E-1,1.958304375E1
7.807417292E0,5.715863800E0,-1.477861771E1,-2.597548370E0,1.605695793E1
7.817402292E0,4.790488129E0,-1.094808334E1,-5.940097504E0,1.334518879E1
7.827387292E0,2.038610687E0,-7.631879425E0,-7.188501434E0,1.068063996E1
7.837373292E0,-8.059240723E-1,-4.775818634E0,-5.916596375E0,7.646180085E0
7.847358292E0,-2.350112915E0,-2.321073303E0,-5.278173981E0,6.226518495E0
7.857343292E0,-2.815794525E0,-9.026229858E-2,-4.530179443E0,5.334732597E0
7.867329292E0,-2.411036224E0,1.536554718E0,-3.594026184E0,4.592506972E0
7.877314292E0,-1.743574219E0,2.526745605E0,-2.941083984E0,4.251407933E0
7.887299292E0,-1.053808594E0,3.061882782E0,-2.719544678E0,4.228659596E0
7.897285292E0,-4.466711426E-1,3.483406219E0,-2.543959808E0,4.336515364E0
7.907270292E0,1.128652954E-1,3.716920624E0,-1.948647766E0,4.198269359E0
7.917255292E0,5.451663208E-1,3.585643616E0,-1.003962250E0,3.763241509E0
7.927241292E0,7.147636414E-1,3.077899475E0,6.227050781E-2,3.160416089E0
7.937226292E0,8.613088989E-1,2.487078094E0,1.140777740E0,2.868585770E0
7.947211292E0,8.378077698E-1,1.902992706E0,1.914069672E0,2.826122044E0
7.957197292E0,6.833290100E-1,1.443747711E0,2.217638397E0,2.732995801E0
7.967182292E0,3.026705933E-1,9.168434143E-1,2.371219025E0,2.560252135E0
7.977167292E0,-5.448669434E-2,3.103047180E-1,2.373763733E0,2.394579729E0
7.987153292E0,-2.885998535E-1,-1.920506287E-1,2.249522095E0,2.276076223E0
7.997138292E0,-3.905378723E-1,-5.478607178E-1,2.102378082E0,2.207411334E0
8.007123292E0,-3.802093506E-1,-6.480024719E-1,1.875899048E0,2.020758172E0
8.017109292E0,-3.679348755E-1,-5.942642212E-1,1.586550751E0,1.733686627E0
8.027094292E0,-3.204835510E-1,-4.564009094E-1,1.297950897E0,1.412688228E0
8.037079292E0,-2.408491516E-1,-2.805166626E-1,1.030906219E0,1.095201144E0
8.047065292E0,-1.573228455E-1,-1.306782532E-1,7.945477295E-1,8.204470598E-1
8.057050292E0,-1.333726501E-1,-6.152206421E-2,6.156697083E-1,6.329474053E-1
8.067035292E0,-8.187973022E-2,7.185058594E-3,3.773652649E-1,3.862129703E-1
8.077021292E0,9.774673462E-2,1.466949463E-2,6.092330933E-2,1.161088619E-1
8.087006292E0,3.305126953E-1,-5.239105225E-2,-3.225791931E-1,4.648018932E-1
8.096991292E0,5.312452698E-1,-1.586700439E-1,-6.694079590E-1,8.691977537E-1
8.106977292E0,7.596702576E-1,-3.146456909E-1,-9.656419373E-1,1.268292223E0
8.116962292E0,9.618997192E-1,-6.409671021E-1,-1.317260742E0,1.752502713E0
8.126947292E0,1.047222290E0,-1.440903625E0,-1.600022736E0,2.394358064E0
8.136932292E0,1.063837738E0,-3.207080841E0,-1.800605621E0,3.828746382E0
8.146918292E0,8.419990540E-1,-7.626041565E0,-4.459825745E0,8.874430575E0
8.156903292E0,1.823208618E-1,-1.705313782E1,-1.406250687E1,2.210422696E1
8.166888292E0,-2.359243927E0,-2.357627289E1,-6.229296112E0,2.449920009E1
8.176874292E0,-4.608017578E0,-3.033382050E1,1.417552185E0,3.071455593E1
8.186859292E0,-7.958949280E0,-4.034754684E1,3.575464783E0,4.128018118E1
8.196844292E0,-1.280572037E1,-4.805187561E1,8.397537231E-2,4.972902850E1
8.206830292E0,-1.374426865E1,-4.734265045E1,-4.959037628E0,4.954617570E1
8.216815292E0,-5.515280914E0,-4.045367615E1,-8.623267822E0,4.172863508E1
8.226800292E0,1.822160797E0,-2.619866959E1,-1.610650635E0,2.631130467E1
8.236786292E0,-5.526507568E-1,-1.837683517E1,4.164639587E0,1.885093411E1
8.246771292E0,-7.893086243E-1,-1.526735138E1,3.332220612E0,1.564668401E1
8.256756292E0,-1.681004333E-1,-1.317395462E1,1.819017334E0,1.330000610E1
8.266742292E0,5.665718079E-1,-1.161105469E1,6.918612671E-1,1.164543973E1
8.276727292E0,1.148860931E0,-1.041968216E1,1.158590698E-1,1.048346703E1
8.286712292E0,1.114881592E0,-9.481133881E0,1.062789917E-1,9.547049589E0
8.296698292E0,6.529421997E-1,-8.702602844E0,4.004173279E-1,8.736244263E0
8.306683292E0,5.709127808E-1,-7.832761688E0,6.491999817E-1,7.880327257E0
8.316668292E0,8.379574585E-1,-6.790329437E0,8.711883545E-1,6.897080231E0
8.326654292E0,1.128203888E0,-5.861660614E0,9.681866455E-1,6.047255125E0
8.336639292E0,1.038091278E0,-5.382507019E0,9.391470337E-1,5.561565648E0
8.346624292E0,4.698878632E0,-5.190306702E0,3.150947571E0,7.677708945E0
8.356610292E0,7.029232635E0,-5.039270782E0,2.374212799E0,8.968904497E0
8.366595292E0,2.477797394E0,-4.483476562E0,2.173480225E-1,5.127209980E0
8.376580292E0,9.864486694E-1,-3.050805817E0,4.854405212E-1,3.242861330E0
8.386566292E0,1.063688049E0,-1.792522430E0,-8.993298340E-1,2.270101998E0
8.396551292E0,1.414109344E0,-1.143023071E0,-1.868115234E0,2.606925681E0
8.406536292E0,2.087858276E0,-8.051756287E-1,-2.080972595E0,3.055798900E0
8.416522292E0,2.363435211E0,-6.089337158E-1,-1.065783691E0,2.663178767E0
8.426507292E0,8.714877319E-1,-5.384303284E-1,-9.698332214E-1,1.410664582E0
8.436492292E0,-8.039781189E-1,-8.907975769E-1,-6.110293579E-1,1.346572692E0
8.446478292E0,-1.730401611E0,-1.878443756E0,-1.968406677E-1,2.561559472E0
8.456463292E0,-2.394570465E0,-4.253704376E0,-2.851570129E-1,4.889711971E0
8.466448292E0,-2.786455536E0,-8.573271790E0,-9.366023254E-1,9.063252592E0
8.476433292E0,-3.205583954E0,-1.451890778E1,-1.560654602E0,1.495025399E1
8.486419292E0,-4.752317505E0,-2.187176743E1,-7.087760925E-1,2.239332703E1
8.496404292E0,-7.431446228E0,-2.964061203E1,1.508413239E0,3.059522160E1
8.506389292E0,-8.591683502E0,-3.324302078E1,1.041085052E0,3.435111809E1
8.516375292E0,-4.500690765E0,-2.550471268E1,-4.309538269E-1,2.590236104E1
8.526360292E0,-1.327289886E0,-1.557870392E1,-7.837701416E-1,1.565477594E1
8.536345292E0,-1.108295288E0,-1.087533463E1,-1.547931061E0,1.104071158E1
8.546331292E0,-8.261320496E-1,-8.506360931E0,-2.000140686E0,8.777313554E0
8.556316292E0,-2.631527710E-1,-6.514004059E0,-2.801574097E0,7.095795634E0
8.566301292E0,5.456153870E-1,-5.028044128E0,-3.062631226E0,5.912582679E0
8.576287292E0,1.112336884E0,-4.357438660E0,-2.592608643E0,5.190971449E0
8.586272292E0,1.619182892E0,-4.160448303E0,-1.950144653E0,4.871770468E0
8.596257292E0,2.334395599E0,-4.415966949E0,-1.359472961E0,5.176710698E0
8.606243292E0,3.103795624E0,-5.551056519E0,-6.976991272E-1,6.398012177E0
8.616228292E0,3.624412994E0,-7.348967743E0,1.796264648E-3,8.194125925E0
8.626213292E0,3.631897430E0,-9.223968658E0,7.705975342E-1,9.943143231E0
8.636199292E0,3.145558777E0,-1.064496368E1,1.679507446E0,1.122633231E1
8.646184292E0,2.707419891E0,-1.159997772E1,3.084635468E0,1.230465691E1
8.656169292E0,1.849703522E0,-1.237072495E1,3.636388092E0,1.302611059E1
8.666155292E0,1.067879333E0,-1.244736557E1,3.009192352E0,1.285038966E1
8.676140292E0,9.237290955E-1,-1.182016983E1,2.378104706E0,1.209235594E1
8.686125292E0,1.085692291E0,-1.083925964E1,2.150727539E0,1.110377892E1
8.696111292E0,1.244961090E0,-9.855505371E0,1.817221069E0,1.009867351E1
8.706096292E0,1.192420349E0,-9.087452545E0,1.253044281E0,9.250609711E0
8.716081292E0,6.783892822E-1,-8.622220001E0,6.146218872E-1,8.670677588E0
8.726067292E0,7.259902954E-2,-8.483458557E0,-3.607498169E-2,8.483845892E0
8.736052292E0,-3.600013733E-1,-8.769214325E0,-5.475613403E-1,8.793665009E0
8.746037292E0,-5.935157776E-1,-9.391620026E0,-9.571096802E-1,9.458903035E0
8.756023292E0,-6.830296326E-1,-1.005279510E1,-1.457968140E0,1.018090811E1
8.766008292E0,-7.312294006E-1,-1.045171555E1,-1.884880371E0,1.064546045E1
8.775993292E0,-7.635621643E-1,-1.058164536E1,-2.178569641E0,1.083053144E1
8.785979292E0,-8.469387817E-1,-1.057326279E1,-2.247276764E0,1.084257553E1
8.795964042E0,-9.430389404E-1,-1.044812302E1,-1.966909790E0,1.067339361E1
8.805949042E0,-1.007704468E0,-1.029050079E1,-1.322499847E0,1.042395706E1
8.815934042E0,-9.481283569E-1,-1.020951920E1,-6.024971008E-1,1.027113588E1
8.825920042E0,-8.675958252E-1,-1.014096176E1,4.236190796E-2,1.017809523E1
8.835905042E0,-9.286688232E-1,-1.004486160E1,5.646258545E-1,1.010348815E1
8.845890042E0,-1.123114471E0,-9.909692688E0,9.283694458E-1,1.001625005E1
8.855876042E0,-1.246008911E0,-9.763746185E0,1.131646729E0,9.907769784E0
8.865861042E0,-1.012943573E0,-9.555828552E0,1.350791016E0,9.703842042E0
8.875846042E0,-7.556286621E-1,-9.330397339E0,1.291214905E0,9.449578039E0
8.885832042E0,-7.435038757E-1,-9.124575348E0,7.023394775E-1,9.181718468E0
8.895817042E0,-7.526348877E-1,-8.847950592E0,-3.143463135E-3,8.879904213E0
8.905802042E0,-4.138893127E-1,-8.549171906E0,-7.352709961E-1,8.590708240E0
8.915788042E0,3.062631226E-1,-8.384963379E0,-2.244432678E0,8.685556172E0
8.925773042E0,1.386416931E0,-8.494086456E0,-3.623664551E0,9.338233313E0
8.935758042E0,2.184108124E0,-8.656349030E0,-3.412004700E0,9.557430768E0
8.945744042E0,2.269879761E0,-8.753796387E0,-2.236349487E0,9.315715986E0
8.955729042E0,2.149380341E0,-8.749156036E0,-9.981243896E-1,9.064426043E0
8.965714042E0,2.176623688E0,-8.587492218E0,-1.796264648E-3,8.859047155E0
8.975700042E0,2.351160736E0,-8.323591003E0,5.294490051E-1,8.665474035E0
8.985685042E0,2.556683350E0,-8.091423798E0,4.087998962E-1,8.495580391E0
8.995670042E0,2.618804169E0,-8.005053406E0,-5.084925842E-1,8.437865845E0
9.005656042E0,2.137704620E0,-8.127648468E0,-2.319726105E0,8.718347313E0
9.015641042E0,6.527925110E-1,-8.792565765E0,-4.533173218E0,9.913879676E0
9.025626042E0,-3.613485718E-1,-9.348210297E0,-6.190975800E0,1.121819013E1
9.035612042E0,-1.685494995E-1,-9.448202362E0,-7.065606995E0,1.179914145E1
9.045597042E0,8.562194824E-2,-9.244476013E0,-6.932084656E0,1.155514888E1
9.055582042E0,-4.924758911E-2,-8.792565765E0,-5.492827606E0,1.036739086E1
9.065568042E0,1.788780212E-1,-7.855963440E0,-2.250270538E0,8.173853217E0
9.075553042E0,1.180594940E0,-6.392606506E0,8.581654358E-1,6.557108377E0
9.085538042E0,1.144220581E0,-5.352868652E0,8.207432556E-1,5.534985369E0
9.095524042E0,8.443940735E-1,-4.115391998E0,6.029461670E-1,4.244172090E0
9.105509042E0,5.974076843E-1,-2.969225464E0,6.162684631E-1,3.090789966E0
9.115494042E0,3.875440979E-1,-3.339405670E0,1.620380402E0,3.731950335E0
9.125480042E0,-3.487747192E-2,-4.829706573E0,2.462828522E0,5.421513290E0
9.135465042E0,-2.399510193E-1,-5.439388733E0,3.505709839E0,6.475687435E0
9.145450042E0,-5.191204834E-1,-6.993307343E0,3.607797546E0,7.886192795E0
9.155435042E0,-8.497828674E-1,-1.182166672E1,7.744894409E-1,1.187744791E1
9.165421042E0,1.786085815E0,-2.522584259E1,-9.690548401E0,2.708209677E1
9.175406042E0,6.846911774E0,-4.440500931E1,-1.548529816E1,4.752346275E1
9.185391042E0,1.000429596E1,-5.217624893E1,-8.910071411E0,5.386869465E1
9.195377042E0,1.049617310E1,-4.631877960E1,-4.399950256E0,4.769652561E1
9.205362042E0,9.983788605E0,-4.018932587E1,-3.557801514E0,4.156339616E1
9.215347042E0,6.922504578E0,-3.023278061E1,-2.661315765E0,3.112916148E1
9.225333042E0,3.639830933E0,-2.117376892E1,-1.866318970E0,2.156524996E1
9.235318042E0,2.534679108E0,-1.677486649E1,-1.235979767E0,1.701024367E1
9.245303042E0,1.548230438E0,-1.429856598E1,-1.236578522E0,1.443520464E1
9.255289042E0,4.709207153E-1,-1.247909958E1,-1.491648102E0,1.257675263E1
9.265274042E0,-6.634204102E-1,-1.101783829E1,-1.660047913E0,1.116192843E1
9.275259042E0,-1.260229340E0,-9.019194489E0,-2.014211426E0,9.326901676E0
9.285245042E0,-1.587748260E0,-6.728208618E0,-2.627635803E0,7.395553101E0
9.295230042E0,-2.141446838E0,-4.236190796E0,-2.943029938E0,5.585027505E0
9.305215042E0,-2.406695251E0,-1.819915466E0,-3.306474152E0,4.476275869E0
9.315201042E0,-2.334994354E0,-5.179229736E-2,-3.791016541E0,4.452716866E0
9.325186042E0,-1.873354340E0,1.045426025E0,-3.710484009E0,4.286031222E0
9.335171042E0,-1.240320740E0,1.447489929E0,-3.586541748E0,4.061638135E0
9.345157042E0,-6.454577637E-1,1.494192810E0,-3.248694305E0,3.633626641E0
9.355142042E0,-2.092648315E-1,1.526076508E0,-2.619103546E0,3.038487233E0
9.365127042E0,9.310638428E-2,1.502725067E0,-1.942061462E0,2.457326627E0
9.375113042E0,2.829116821E-1,1.339714050E0,-1.272054749E0,1.868955869E0
9.385098042E0,3.050656128E-1,1.171164551E0,-6.414161682E-1,1.369710237E0
9.395083042E0,4.778063965E-1,1.057550812E0,-3.376977539E-1,1.208615921E0
9.405069042E0,6.526428223E-1,1.035696259E0,-4.360432434E-1,1.299516488E0
9.415054042E0,7.247927856E-1,1.021176453E0,-1.055455170E0,1.637715343E0
9.425039042E0,5.992039490E-1,9.791139221E-1,-2.384990387E0,2.646863916E0
9.435025042E0,1.175056458E-1,8.939410400E-1,-3.207380219E0,3.331700170E0
9.445010042E0,-2.429447937E-1,7.093748474E-1,-2.777923279E0,2.877341236E0
9.454995042E0,-3.483256531E-1,5.279521179E-1,-1.912423096E0,2.014305413E0
9.464980042E0,-4.016148376E-1,4.561015320E-1,-9.361532593E-1,1.116112006E0
9.474966042E0,-4.421804810E-1,4.435276794E-1,1.202000427E-1,6.377212796E-1
9.484951042E0,-3.315605164E-1,4.275109863E-1,1.331331482E0,1.437060032E0
9.494936042E0,-5.688171387E-2,4.736151123E-1,2.245480499E0,2.295589135E0
9.504922042E0,2.610571289E-1,5.213658142E-1,2.542762299E0,2.608757030E0
9.514907042E0,4.757107544E-1,5.773493958E-1,2.540516968E0,2.648369217E0
9.524892042E0,5.777984619E-1,6.135740662E-1,2.441123657E0,2.582519875E0
9.534878042E0,6.207591248E-1,5.830375671E-1,2.079026642E0,2.246692341E0
9.544863042E0,6.246510315E-1,4.810995483E-1,1.664688263E0,1.841964359E0
9.554848042E0,4.580474854E-1,2.351609802E-1,1.266067200E0,1.366760528E0
9.564834042E0,2.477348328E-1,-1.962419128E-1,9.095086670E-1,9.628548442E-1
9.574819042E0,1.432521057E-1,-3.508703613E-1,7.068301392E-1,8.020224572E-1
9.584804042E0,1.429527283E-1,-4.514611816E-1,5.864804077E-1,7.537983482E-1
9.594790042E0,1.672023010E-1,-7.244934082E-1,4.742138672E-1,8.818878046E-1
9.604775042E0,1.764830017E-1,-1.089135132E0,5.185217285E-1,1.219108842E0
9.614760042E0,1.501377869E-1,-1.638792114E0,1.039737854E0,1.946595940E0
9.624746042E0,-2.649490356E-1,-7.820038147E0,1.719923401E0,8.011325179E0
9.634731042E0,-5.413791962E0,-3.262405792E1,2.699336700E0,3.318018561E1
9.644716042E0,-1.082893112E1,-4.756209412E1,7.523355103E0,4.935604743E1
9.654702042E0,-1.442550201E1,-6.839801559E1,5.531297607E0,7.012117297E1
9.664687042E0,-8.332123260E0,-7.421821243E1,-2.214195557E0,7.471726706E1
9.674672042E0,1.047177383E1,-5.914725266E1,-2.283142181E1,6.425985812E1
9.684658042E0,1.160132492E1,-3.960134857E1,-1.737107666E1,4.477289194E1
9.694643042E0,1.427431641E0,-2.326821350E1,-9.322613525E-1,2.333059004E1
9.704628042E0,-5.760021973E-1,-1.549877014E1,2.085463257E0,1.564905145E1
9.714614042E0,-7.858657837E-2,-1.065154999E1,1.720821533E0,1.078994531E1
9.724599042E0,-1.788780212E-1,-7.521109772E0,1.112336884E0,7.605023530E0
9.734584042E0,-6.860234070E-1,-5.577850800E0,6.475534058E-1,5.657063997E0
9.744570042E0,-1.220861206E0,-4.277654572E0,7.692503357E-1,4.514485219E0
9.754555042E0,1.739382935E-1,-3.047812042E0,2.414778442E0,3.892373017E0
9.764540042E0,1.012704071E1,-1.109792175E0,1.214289871E1,1.585050729E1
9.774526042E0,5.995781708E0,-3.713028717E0,3.704496460E0,7.966132974E0
9.784511042E0,6.047424316E-2,-2.168390808E0,-2.055824890E0,2.988643808E0
9.794496792E0,-1.680854645E0,-5.016069031E-1,-6.837331696E0,7.058752477E0
9.804482792E0,-7.626640320E-1,4.737648010E-1,-4.468956757E0,4.558254491E0
9.814467792E0,-5.415737915E-1,8.331674194E-1,-3.970792694E0,4.093246235E0
9.824452792E0,-2.035616913E0,2.993774414E-1,-4.822521515E0,5.243098018E0
9.834437792E0,-2.218835907E0,-2.026785278E-1,-1.901495819E0,2.929163314E0
9.844423792E0,-1.399439850E0,-1.099164276E0,6.101312256E-1,1.881184231E0
9.854408792E0,-8.535250854E-1,-2.059417419E0,1.861229553E0,2.904114431E0
9.864393792E0,-4.447251892E-1,-2.865042114E0,1.913919983E0,3.474095064E0
9.874379792E0,-1.294807434E-1,-3.713777161E0,1.469045105E0,3.995872819E0
9.884364792E0,6.373745728E-1,-4.479734344E0,4.574487305E-1,4.547914410E0
9.894349792E0,6.682104492E-1,-5.432203674E0,-1.558259583E-1,5.475365165E0
9.904335792E0,-1.529818726E-1,-6.823710022E0,1.706451416E-1,6.827557519E0
9.914320792E0,-1.084195404E0,-8.587641907E0,9.120533752E-1,8.703729922E0
9.924305792E0,-1.837878113E0,-1.086785019E1,2.039957886E0,1.120934395E1
9.934291792E0,-2.284399567E0,-1.346958984E1,3.077899475E0,1.400434922E1
9.944276792E0,-2.364333344E0,-1.586924973E1,3.763473816E0,1.647989363E1
9.954261792E0,-2.313738556E0,-1.794198944E1,4.176764374E0,1.856646794E1
9.964247792E0,-2.088756409E0,-1.996443375E1,4.398752747E0,2.054970909E1
9.974232792E0,-1.729353790E0,-2.203238342E1,4.423152008E0,2.253843068E1
9.984217792E0,-1.128952332E0,-2.322824661E1,4.105662231E0,2.361530090E1
9.994203792E0,-3.203338623E-2,-2.133064270E1,3.300486603E0,2.158449805E1
1.000418879E1,7.556286621E-1,-1.679836761E1,2.199226685E0,1.695855911E1
1.001417379E1,9.060658264E-1,-1.301259018E1,1.138831787E0,1.309371591E1
1.002415979E1,7.476951599E-1,-9.858349457E0,1.243913269E-1,9.887445336E0
1.003414479E1,5.281018066E-1,-7.377857666E0,-8.253836060E-1,7.442642901E0
1.004412979E1,6.444099426E-1,-5.872737579E0,-1.881437531E0,6.200332090E0
1.005411579E1,1.055455170E0,-5.341791687E0,-3.390150146E0,6.414190678E0
1.006410079E1,1.824855194E0,-5.774691467E0,-5.525160370E0,8.197838443E0
1.007408579E1,3.551664276E0,-6.678961029E0,-1.060739182E1,1.302841513E1
1.008407179E1,4.876708832E0,-7.277266846E0,-1.116842514E1,1.419417563E1
1.009405679E1,3.544329529E0,-7.380252686E0,-6.185137939E0,1.026091287E1
1.010404179E1,2.507735138E0,-7.538623352E0,-3.355122986E0,8.624176936E0
1.011402779E1,1.959125977E0,-7.961943054E0,-1.089135132E0,8.271452540E0
1.012401279E1,8.397537231E-1,-8.812624054E0,1.144220581E0,8.926184502E0
1.013399779E1,-4.861889648E-1,-9.853858795E0,3.135529633E0,1.035212340E1
1.014398279E1,-1.660197601E0,-1.091125992E1,4.155807953E0,1.179332815E1
1.015396879E1,-2.283501434E0,-1.158171570E1,4.408781891E0,1.260110611E1
1.016395379E1,-2.200573883E0,-1.157827286E1,4.376898193E0,1.257203904E1
1.017393879E1,-2.161505127E0,-1.108340195E1,4.195924530E0,1.204656324E1
1.018392479E1,-2.487826538E0,-1.038615189E1,3.810326385E0,1.133931299E1
1.019390979E1,-2.683619385E0,-9.688153381E0,3.169209595E0,1.054068396E1
1.020389479E1,-2.669398956E0,-9.332792358E0,2.547402649E0,1.003573437E1
1.021388079E1,-2.659519501E0,-9.451046448E0,2.136058044E0,1.004778915E1
1.022386579E1,-2.802023163E0,-1.008976822E1,1.830094299E0,1.063033403E1
1.023385079E1,-2.796634369E0,-1.096814163E1,1.571731567E0,1.142766970E1
1.024383679E1,-2.460732880E0,-1.159518768E1,1.464853821E0,1.194359161E1
1.025382179E1,-2.033072205E0,-1.169368286E1,1.520687714E0,1.196612270E1
1.026380679E1,-1.590442657E0,-1.139220978E1,1.552571411E0,1.160699916E1
1.027379279E1,-1.202599182E0,-1.094972992E1,1.506317596E0,1.111808539E1
1.028377779E1,-8.701405334E-1,-1.052236862E1,1.393003235E0,1.064978140E1
1.029376279E1,-5.346881104E-1,-1.020353165E1,1.133293304E0,1.028018984E1
1.030374879E1,-2.107617188E-1,-1.000399658E1,6.584806824E-1,1.002785944E1
1.031373379E1,2.293231201E-1,-9.898016968E0,-1.694476318E-1,9.902123080E0
1.032371879E1,7.075785828E-1,-9.901759186E0,-1.218466187E0,1.000150800E1
1.033370479E1,1.144969025E0,-9.962832184E0,-2.312241669E0,1.029152276E1
1.034368979E1,1.398990784E0,-1.000863693E1,-3.221301270E0,1.060692087E1
1.035367479E1,1.372046814E0,-9.982441406E0,-3.811972961E0,1.077324402E1
1.036366079E1,9.870474243E-1,-9.944121094E0,-4.000131683E0,1.076386828E1
1.037364579E1,1.543290710E-1,-1.003423370E1,-3.658991089E0,1.068166089E1
1.038363079E1,-7.334747314E-1,-1.009605515E1,-2.739303589E0,1.048675826E1
1.039361679E1,-1.395098877E0,-1.006911118E1,-1.527423706E0,1.027941263E1
1.040360179E1,-1.982776794E0,-1.001447479E1,-3.385958862E-1,1.021448757E1
1.041358679E1,-2.391427002E0,-9.768985291E0,6.451583862E-1,1.007810627E1
1.042357279E1,-2.533780975E0,-9.376052399E0,1.325044556E0,9.802354191E0
1.043355779E1,-2.306403809E0,-8.840765533E0,1.680854645E0,9.289989563E0
1.044354279E1,-1.886826324E0,-8.384813690E0,2.566263428E0,8.969443805E0
1.045352879E1,-1.676663361E0,-7.682773590E0,3.483256531E0,8.600539874E0
1.046351379E1,-1.030906219E0,-6.684349823E0,2.992277527E0,7.395743708E0
1.047349879E1,-8.756790161E-2,-5.855074310E0,2.981799316E-1,5.863316006E0
1.048348379E1,1.095422058E0,-5.970184937E0,-3.655697937E0,7.085702863E0
1.049346979E1,1.950893097E0,-6.365213470E0,-5.113815765E0,8.394822100E0
1.050345479E1,2.357447662E0,-6.472839661E0,-3.842659149E0,7.888044250E0
1.051343979E1,3.909120941E0,-6.345454559E0,-3.557352448E0,8.258376144E0
1.052342579E1,4.362977142E0,-6.449188843E0,-4.837640076E0,9.166807938E0
1.053341079E1,4.377197571E0,-6.698420563E0,-5.346881104E0,9.623815987E0
1.054339579E1,4.622836761E0,-7.035369873E0,-5.111271057E0,9.848458803E0
1.055338179E1,5.285808105E0,-6.875502319E0,-5.112318878E0,1.006717953E1
1.056336679E1,6.245013428E0,-6.075865173E0,-4.860991516E0,9.977252570E0
1.057335179E1,6.784491577E0,-4.765340424E0,-4.214785309E0,9.300656456E0
1.058333779E1,5.224735107E0,-2.642454987E0,-3.376229095E0,6.758649880E0
1.059332279E1,1.759441223E0,-4.375401306E-1,-2.278561707E0,2.911858210E0
1.060330779E1,-8.268804932E-1,-9.580078125E-3,-2.227966919E0,2.376480532E0
1.061329379E1,-8.876541138E-1,-1.582060089E0,-2.230361938E0,2.874953622E0
1.062327879E1,5.719606018E-1,-4.762945404E0,5.879772949E-1,4.833063744E0
1.063326379E1,3.437002716E0,-9.796977081E0,2.826272736E0,1.076018425E1
1.064324979E1,6.817872162E0,-1.735401215E1,1.293310547E-1,1.864569240E1
1.065323479E1,9.929451599E0,-2.883783142E1,-5.087171173E0,3.092076714E1
1.066321979E1,1.341166031E1,-4.350837387E1,-1.265618134E0,4.554616360E1
1.067320579E1,1.247730331E1,-5.089820663E1,3.146307220E0,5.249961701E1
1.068319079E1,9.014254761E0,-4.548321716E1,9.659413147E-1,4.637793522E1
1.069317579E1,8.798852692E0,-3.634741516E1,-1.999092865E0,3.745064445E1
1.070316179E1,7.448211365E0,-2.770678345E1,-3.292104034E0,2.887870583E1
1.071314679E1,5.528453522E0,-2.309771805E1,-2.969225464E0,2.393500945E1
1.072313179E1,4.742737427E0,-2.116463791E1,-2.774630127E0,2.186627605E1
1.073311779E1,4.122876434E0,-1.957180023E1,-2.749482422E0,2.018943110E1
1.074310279E1,2.624342651E0,-1.778616348E1,-2.316133575E0,1.812730704E1
1.075308779E1,7.608677673E-1,-1.506721756E1,-2.218386841E0,1.524864600E1
1.076307279E1,-9.732760620E-1,-1.179951279E1,-2.788551178E0,1.216354331E1
1.077305879E1,-2.178569641E0,-8.159382477E0,-3.870351563E0,9.289849800E0
1.078304379E1,-3.497027893E0,-4.626728668E0,-5.770051117E0,8.181033684E0
1.079302829E1,-4.354444885E0,-2.009571075E0,-6.763684845E0,8.291380998E0
1.080301429E1,-4.431833954E0,-2.390528870E-1,-5.297932892E0,6.911323419E0
1.081299929E1,-4.196223907E0,7.688012695E-1,-3.242856445E0,5.358681591E0
1.082298429E1,-3.754342804E0,1.263522491E0,-1.764530640E0,4.336490211E0
1.083297029E1,-3.442241821E0,1.662742310E0,-4.638853455E-1,3.850835021E0
1.084295529E1,-3.008443909E0,1.804048462E0,2.577639771E-1,3.517352395E0
1.085294029E1,-2.379601593E0,1.911375275E0,6.333329773E-1,3.117205454E0
1.086292629E1,-1.727557526E0,1.984273682E0,6.680607605E-1,2.714424843E0
1.087291129E1,-1.476080475E0,1.878593445E0,4.745132446E-1,2.435793447E0
1.088289629E1,-1.352736969E0,1.968107300E0,-4.381388855E-1,2.428025810E0
1.089288229E1,-1.305285645E0,2.113604736E0,-1.891915741E0,3.122569577E0
1.090286729E1,-1.509760437E0,1.954635315E0,-2.556683350E0,3.554800352E0
1.091285229E1,-1.683249664E0,1.581760712E0,-1.324894867E0,2.662826091E0
1.092283829E1,-1.891017609E0,1.326691132E0,2.918930054E-1,2.328359612E0
1.093282329E1,-2.083517303E0,1.233135681E0,1.535057831E0,2.866717723E0
1.094280829E1,-1.927990723E0,1.097517700E0,2.041305084E0,3.014733782E0
1.095279429E1,-1.603914642E0,9.415420532E-1,1.935924225E0,2.684556988E0
1.096277929E1,-1.271006927E0,8.240364075E-1,1.609004059E0,2.209839060E0
1.097276429E1,-8.900491333E-1,7.351213074E-1,1.366658020E0,1.788950793E0
1.098275029E1,-4.998106384E-1,6.524931335E-1,1.139280853E0,1.404819855E0
1.099273529E1,-1.588197327E-1,5.887257385E-1,9.750723267E-1,1.150038149E0
1.100272029E1,8.951385498E-2,5.324427795E-1,8.268804932E-1,9.875420972E-1
1.101270629E1,2.457888794E-1,4.068539429E-1,6.288423157E-1,7.882797486E-1
1.102269129E1,2.992277527E-1,2.562670898E-1,4.490661621E-1,5.973863802E-1
1.103267629E1,2.924917603E-1,1.410067749E-1,3.116519165E-1,4.500680587E-1
1.104266229E1,3.444337463E-1,7.155120850E-2,2.980302429E-1,4.610598733E-1
1.105264729E1,4.079017639E-1,1.960922241E-2,3.287164307E-1,5.242355028E-1
1.106263229E1,4.776567078E-1,-2.140548706E-2,2.447410583E-1,5.371334201E-1
1.107261829E1,7.243437195E-1,-5.224136353E-2,-5.867797852E-2,7.285918536E-1
1.108260329E1,1.045725403E0,-1.826202393E-1,-8.843609619E-1,1.381660624E0
1.109258829E1,1.186133423E0,-6.209088135E-1,-2.720442810E0,3.032037159E0
1.110257329E1,5.264552307E-1,-1.796264648E0,-7.577392731E0,7.805165110E0
1.111255929E1,-2.944377136E-1,-3.708088989E0,-1.080737595E1,1.142961033E1
1.112254429E1,-1.376687164E0,-9.580976257E0,-7.660020905E0,1.234367424E1
1.113252929E1,-6.717580719E0,-3.398293213E1,-5.016518097E0,3.500187167E1
1.114251529E1,-1.358200607E1,-5.589107391E1,3.065625000E-1,5.751849279E1
1.115250029E1,-1.524085648E1,-6.750003296E1,5.245092773E-1,6.920125191E1
1.116248529E1,-4.196223907E0,-6.411287659E1,-2.655777283E0,6.430491733E1
1.117247129E1,7.174131317E0,-5.193779480E1,-1.578617249E0,5.245469208E1
1.118245629E1,6.772516479E0,-3.595118912E1,4.190835114E0,3.682279291E1
1.119244129E1,3.187471619E0,-2.322375595E1,4.915777588E0,2.395136082E1
1.120242729E1,2.736609192E0,-1.458731552E1,2.025887146E0,1.497941997E1
1.121241229E1,2.990181885E0,-9.057215424E0,-1.686991882E-1,9.539538686E0
1.122239729E1,2.966231689E0,-5.908064117E0,-1.301992493E0,6.737873292E0
1.123238329E1,2.612367554E0,-4.112847290E0,-1.742077332E0,5.174438182E0
1.124236829E1,1.853445740E0,-3.237467651E0,-1.713337097E0,4.105116553E0
1.125235329E1,1.173709259E0,-2.847678223E0,-1.429826660E0,3.395772219E0
1.126233929E1,8.611592102E-1,-2.736908569E0,-1.076860657E0,3.064619483E0
1.127232429E1,9.027726746E-1,-2.695145416E0,-7.252418518E-1,2.933391051E0
1.128230929E1,1.364113312E0,-2.673440552E0,-5.692662048E-1,3.054857365E0
1.129229529E1,1.867666168E0,-2.692001953E0,-5.480104065E-1,3.321952263E0
1.130228029E1,2.210153961E0,-2.416125641E0,-5.873785400E-1,3.326778801E0
1.131226529E1,2.299518127E0,-2.109413452E0,-5.038522339E-1,3.160897943E0
1.132225129E1,2.042801971E0,-1.720222778E0,-4.138893127E-1,2.702500817E0
1.133223629E1,1.685644684E0,-1.336271210E0,-3.046165466E-1,2.172512367E0
1.134222129E1,1.377435608E0,-9.865983582E-1,-2.598596191E-1,1.714127240E0
1.135220729E1,9.413923645E-1,-8.096662903E-1,-1.092727661E-1,1.246482901E0
1.136219229E1,3.031196594E-1,-8.860075378E-1,5.074447632E-2,9.377984255E-1
1.137217729E1,-2.971321106E-1,-1.095721436E0,1.523831177E-1,1.145475259E0
1.138216329E1,-7.643106079E-1,-1.575623474E0,2.350112915E-1,1.766915489E0
1.139214829E1,-1.128802643E0,-2.658920746E0,2.565664673E-1,2.899979533E0
1.140213329E1,-1.383123779E0,-4.809947662E0,2.312690735E-1,5.010200923E0
1.141211829E1,-1.658850403E0,-8.369844818E0,2.540217590E-1,8.536428644E0
1.142210429E1,-2.361189880E0,-1.357886261E1,4.555027771E-1,1.379014903E1
1.143208929E1,-3.822900238E0,-2.134052216E1,2.703378296E-1,2.168191723E1
1.144207429E1,-6.484066315E0,-3.112282974E1,1.392105103E-1,3.179139863E1
1.145206029E1,-9.578730927E0,-3.845667892E1,1.437011719E-2,3.963165965E1
1.146204529E1,-8.913813629E0,-3.375974625E1,-1.351689148E0,3.494286198E1
1.147203029E1,-5.347030792E0,-2.022833496E1,-2.204166412E0,2.103888360E1
1.148201629E1,-3.993695068E0,-1.170341263E1,-2.271676025E0,1.257298610E1
1.149200129E1,-3.517385559E0,-7.760162659E0,-1.885030060E0,8.726136831E0
1.150198629E1,-2.781815186E0,-5.723647614E0,-1.172062683E0,6.470886235E0
1.151197229E1,-1.427581329E0,-4.147874451E0,-1.182840271E0,4.543342604E0
1.152195729E1,-1.425036621E-1,-2.921325073E0,-1.325044556E0,3.210948544E0
1.153194229E1,8.234376526E-1,-2.255509644E0,-1.439406738E0,2.799511578E0
1.154192829E1,1.493743744E0,-2.109114075E0,-1.743723907E0,3.117724429E0
1.155191329E1,1.930535431E0,-2.696642303E0,-2.024240570E0,3.885408170E0
1.156189829E1,2.236648865E0,-4.187242584E0,-2.097438354E0,5.189879214E0
1.157188429E1,2.430046692E0,-6.276448059E0,-1.925745392E0,7.000530157E0
1.158186929E1,2.573598175E0,-8.345295868E0,-1.491049347E0,8.859492020E0
1.159185429E1,2.576591949E0,-9.989027710E0,-7.842192078E-1,1.034574794E1
1.160184029E1,2.234403534E0,-1.117995117E1,8.966354370E-2,1.140139934E1
1.161182529E1,1.349892883E0,-1.205054077E1,8.315208435E-1,1.215438894E1
1.162181029E1,3.450325012E-1,-1.250679199E1,1.238374786E0,1.257268728E1
1.163179629E1,-4.537065125E-1,-1.254960297E1,1.467697906E0,1.264327969E1
1.164178129E1,-1.104253693E0,-1.214649124E1,1.610500946E0,1.230245256E1
1.165176629E1,-1.722917175E0,-1.146046783E1,1.482517090E0,1.168369049E1
1.166175229E1,-2.341580658E0,-1.077624069E1,1.045575714E0,1.107716534E1
1.167173729E1,-2.885998535E0,-1.018287460E1,3.182382202E-1,1.058872978E1
1.168172229E1,-3.246748352E0,-9.709259491E0,-6.330335999E-1,1.025728162E1
1.169170829E1,-3.408262482E0,-9.397308197E0,-1.451232147E0,1.010107565E1
1.170169329E1,-3.336411896E0,-9.345815277E0,-1.794618073E0,1.008447131E1
1.171167829E1,-3.187770996E0,-9.477241974E0,-1.810036011E0,1.016150726E1
1.172166429E1,-3.064128113E0,-9.636361084E0,-1.692979431E0,1.025253702E1
1.173164929E1,-2.984493713E0,-9.637857971E0,-1.395248566E0,1.018539285E1
1.174163429E1,-2.662064209E0,-9.470356293E0,-9.080117798E-1,9.879206423E0
1.175161929E1,-2.146536255E0,-9.121581573E0,-3.778143311E-1,9.378358703E0
1.176160529E1,-1.401984558E0,-8.799301758E0,7.050338745E-2,8.910569166E0
1.177159029E1,-7.601193237E-1,-8.658145294E0,3.399430847E-1,8.698093045E0
1.178157529E1,-3.944297791E-1,-8.662037201E0,4.555027771E-1,8.682968738E0
1.179156129E1,-1.624122620E-1,-8.780740356E0,4.337979126E-1,8.792949424E0
1.180154692E1,6.256988525E-2,-9.025481415E0,3.124003601E-1,9.031103130E0
1.181153192E1,2.160008240E-1,-9.401798859E0,1.637594604E-1,9.405705465E0
1.182151792E1,2.466870117E-1,-9.890981598E0,3.188369751E-2,9.894108753E0
1.183150292E1,1.429527283E-1,-1.040097107E1,-6.750961304E-2,1.040217248E1
1.184148792E1,-2.290237427E-2,-1.084928879E1,-1.796264648E-1,1.085079985E1
1.185147392E1,-2.803669739E-1,-1.115809662E1,-2.962339783E-1,1.116554882E1
1.186145892E1,-8.514294434E-1,-1.122066650E1,-4.839436340E-1,1.126332501E1
1.187144392E1,-1.518442383E0,-1.104208786E1,-6.852749634E-1,1.116704855E1
1.188142992E1,-1.985620880E0,-1.073567505E1,-9.225315857E-1,1.095666343E1
1.189141492E1,-2.277214508E0,-1.039872574E1,-1.150357819E0,1.070712501E1
1.190139992E1,-2.462379456E0,-1.009425888E1,-1.369053040E0,1.048006112E1
1.191138592E1,-2.600991211E0,-9.828711090E0,-1.555415497E0,1.028533103E1
1.192137092E1,-2.689606934E0,-9.614955597E0,-1.695524139E0,1.012700147E1
1.193135592E1,-2.633922729E0,-9.487869873E0,-1.792971497E0,1.000859483E1
1.194134192E1,-2.301763458E0,-9.413624268E0,-1.856888580E0,9.867242374E0
1.195132692E1,-1.915865936E0,-9.279203796E0,-1.890867920E0,9.661756925E0
1.196131192E1,-1.635648651E0,-9.065747681E0,-1.913620605E0,9.408776293E0
1.197129792E1,-1.409468994E0,-8.812474365E0,-1.869312744E0,9.118148793E0
1.198128292E1,-1.264869690E0,-8.521329803E0,-1.708397369E0,8.782458569E0
1.199126792E1,-1.150208130E0,-8.207133179E0,-1.416803741E0,8.407576737E0
1.200125392E1,-1.046773224E0,-7.807164917E0,-1.044527893E0,7.945979911E0
1.201123892E1,-9.556127930E-1,-7.295977936E0,-6.589297485E-1,7.387738373E0
1.202122392E1,-7.634124756E-1,-6.651867371E0,-3.365002441E-1,6.703981693E0
1.203120892E1,-4.894821167E-1,-5.997278595E0,-3.040177917E-1,6.024895859E0
1.204119492E1,-3.115022278E-1,-5.381309509E0,-1.022673340E0,5.486473041E0
1.205117992E1,-4.001179504E-1,-5.649851074E0,-2.477198639E0,6.182024315E0
1.206116492E1,-7.099736023E-1,-6.220913544E0,-4.513114929E0,7.718292181E0
1.207115092E1,-6.366261292E-1,-6.622827759E0,-6.708150330E0,9.448090876E0
1.208113592E1,-4.486170959E-1,-6.624773712E0,-8.064779205E0,1.044650887E1
1.209112092E1,-7.394622803E-2,-6.536008301E0,-8.608149261E0,1.080856634E1
1.210110692E1,7.858657837E-1,-6.347550201E0,-8.003257141E0,1.024505263E1
1.211109192E1,2.214944000E0,-5.791157227E0,-6.708300018E0,9.134810785E0
1.212107692E1,2.828069000E0,-4.977000275E0,-6.091881866E0,8.359397746E0
1.213106292E1,1.616189117E0,-3.671265564E0,-4.693938904E0,6.174408517E0
1.214104792E1,3.143463135E-2,-3.559298401E0,-2.700384521E-1,3.569665812E0
1.215103292E1,-2.212399292E-1,-5.101241913E0,3.534899139E0,6.210243802E0
1.216101892E1,-3.113525391E-2,-7.843389587E0,5.405708771E0,9.525828937E0
1.217100392E1,6.617738342E-1,-1.246712448E1,6.280190277E0,1.397526126E1
1.218098892E1,2.419418793E0,-1.908052185E1,5.466033325E0,1.999493490E1
1.219097492E1,4.915777588E0,-2.996334091E1,1.643282776E0,3.040833843E1
1.220095992E1,5.804928589E0,-4.505361053E1,-2.252815247E0,4.548186666E1
1.221094492E1,3.692371674E0,-5.366161011E1,-3.793561249E0,5.392210229E1
1.222093092E1,9.217831421E-1,-4.886273941E1,-6.242768097E0,4.926854108E1
1.223091592E1,2.336042175E0,-3.840189285E1,-9.905052338E0,3.972747827E1
1.224090092E1,2.987637177E0,-2.746728149E1,-1.211266159E1,3.016776590E1
1.225088692E1,1.760938110E0,-1.989497818E1,-9.841135254E0,2.226564625E1
1.226087192E1,1.177451477E0,-1.558573929E1,-5.799539795E0,1.667142234E1
1.227085692E1,8.704399109E-1,-1.298355057E1,-2.458188171E0,1.324284486E1
1.228084292E1,-3.043171692E-1,-1.159892990E1,-3.835025024E-1,1.160925743E1
1.229082792E1,-1.610351257E0,-1.016146912E1,3.339555359E-1,1.029369769E1
1.230081292E1,-2.438129883E0,-8.093369751E0,4.040098572E-1,8.462289006E0
1.231079892E1,-3.047961731E0,-5.558690643E0,-2.694396973E-3,6.339488910E0
1.232078392E1,-3.259322205E0,-3.101699982E0,-1.381626892E0,4.706656656E0
1.233076892E1,-3.108435974E0,-1.046922913E0,-3.606899414E0,4.875258472E0
1.234075492E1,-2.700833588E0,4.534071350E-1,-5.174589386E0,5.854609757E0
1.235073992E1,-2.050436096E0,1.282233582E0,-5.657634888E0,6.152824040E0
1.236072492E1,-1.194366302E0,1.577569427E0,-5.244344330E0,5.605210399E0
1.237070992E1,-4.221221924E-1,1.730102234E0,-4.422553253E0,4.767642831E0
1.238069592E1,1.712438965E-1,1.694176941E0,-3.455713806E0,3.852469064E0
1.239068092E1,3.668870544E-1,1.460662537E0,-2.414329376E0,2.845545201E0
1.240066592E1,3.059637451E-1,1.163231049E0,-1.528920593E0,1.945332482E0
1.241065192E1,2.439926147E-1,9.598040771E-1,-8.589138794E-1,1.310911635E0
1.242063692E1,3.147953796E-1,8.548722839E-1,-3.876937866E-1,9.900551626E-1
1.243062192E1,3.875440979E-1,7.996371460E-1,7.783813477E-2,8.920026728E-1
1.244060792E1,3.348536682E-1,8.033793640E-1,3.329077148E-1,9.318652951E-1
1.245059292E1,1.844165039E-1,8.220904541E-1,5.426216125E-1,1.002137903E0
1.246057792E1,7.140151978E-2,8.244854736E-1,8.964857483E-1,1.220066052E0
1.247056392E1,2.694396973E-3,7.722441101E-1,1.343007202E0,1.549205141E0
1.248054892E1,6.616241455E-2,7.295828247E-1,1.558558960E0,1.722142443E0
1.249053392E1,1.814227295E-1,6.494993591E-1,1.546134796E0,1.686800650E0
1.250051992E1,2.424957275E-1,5.766009521E-1,1.443598022E0,1.573292117E0
1.251050492E1,2.920426941E-1,5.019062805E-1,1.331630859E0,1.452735212E0
1.252048992E1,3.115022278E-1,4.384382629E-1,1.192719727E0,1.308373836E0
1.253047592E1,3.097059631E-1,4.150868225E-1,1.110540619E0,1.225363342E0
1.254046092E1,3.162922668E-1,4.125421143E-1,1.050066376E0,1.171695860E0
1.255044592E1,2.673440552E-1,4.191284180E-1,9.846524048E-1,1.103033015E0
1.256043192E1,1.923500061E-1,4.628375244E-1,1.014590149E0,1.131640521E0
1.257041692E1,5.852828979E-2,4.885839844E-1,1.061442719E0,1.169957484E0
1.258040192E1,-1.169068909E-1,4.739144897E-1,1.074166260E0,1.179870891E0
1.259038792E1,-3.523672485E-1,3.112028503E-1,1.002165985E0,1.106953727E0
1.260037292E1,-5.016069031E-1,-7.050338745E-2,8.304730225E-1,9.727618691E-1
1.261035792E1,-4.553530884E-1,-4.061054993E-1,5.840853882E-1,8.446442164E-1
1.262034392E1,-4.099974060E-1,-7.541317749E-1,3.329077148E-1,9.206737497E-1
1.263032892E1,-4.287084961E-1,-1.290616150E0,4.074526978E-1,1.419682613E0
1.264031392E1,-7.032376099E-1,-2.084116058E0,1.458417206E0,2.639140699E0
1.265029892E1,-2.533331909E0,-6.306086426E0,4.586761780E0,8.198956043E0
1.266028492E1,-1.138921600E1,-3.097658386E1,7.005581818E0,3.373931187E1
1.267026992E1,-2.212788483E1,-4.949682083E1,1.112351852E1,5.534718804E1
1.268025492E1,-2.740560974E1,-6.445865753E1,4.699028320E0,7.020019119E1
1.269024092E1,-1.362047607E1,-7.926302170E1,-3.277180069E1,8.684546561E1
1.270022592E1,2.576307541E1,-6.714347443E1,-6.056151169E1,9.401956664E1
1.271021092E1,1.173260193E1,-3.513942719E1,-1.224738144E1,3.901835008E1
1.272019692E1,-1.081351318E0,-2.134860535E1,3.486250305E0,2.165839819E1
1.273018192E1,-2.269580383E0,-1.434661606E1,5.247637482E0,1.544390127E1
1.274016692E1,-2.079924774E0,-8.647966461E0,5.440137177E0,1.042633701E1
1.275015292E1,-2.117496643E0,-5.167104950E0,5.145849152E0,7.593584732E0
1.276013792E1,-2.494712219E0,-3.606150970E0,4.929998016E0,6.597938642E0
1.277012292E1,-2.477048950E0,-2.487377472E0,4.159550171E0,5.442855483E0
1.278010892E1,-1.904190216E0,-1.330433350E0,3.319347382E0,4.051426948E0
1.279009392E1,-1.265169067E0,-5.002597046E-1,2.466570740E0,2.816892571E0
1.280007854E1,-5.724096680E-1,-8.427474976E-2,1.611698456E0,1.712403858E0
1.281006454E1,-1.990859985E-2,7.664062500E-2,1.018482056E0,1.021555596E0
1.282004954E1,3.396437073E-1,7.304809570E-2,6.671626282E-1,7.521966795E-1
1.283003454E1,5.936654663E-1,1.616638184E-2,6.093827820E-1,8.509097559E-1
1.284002054E1,8.273295593E-1,-6.691085815E-2,4.245172119E-1,9.322907947E-1
1.285000554E1,9.386979675E-1,-1.276844788E-1,1.770817566E-1,9.637505636E-1
1.285999054E1,9.693841553E-1,-2.393522644E-1,2.409988403E-2,9.987872403E-1
1.286997654E1,8.807684326E-1,-4.005670166E-1,-7.888595581E-2,9.707883192E-1
1.287996154E1,6.839277649E-1,-5.429209900E-1,-1.966909790E-1,8.951020781E-1
1.288994654E1,6.012995911E-1,-7.060816956E-1,-3.137475586E-1,9.790557132E-1
1.289993254E1,5.182223511E-1,-9.891430664E-1,-4.025129700E-1,1.187002570E0
1.290991754E1,4.207749939E-1,-1.572779388E0,-4.923262024E-1,1.700903198E0
1.291990254E1,2.802172852E-1,-2.730771332E0,-5.780978394E-1,2.805321890E0
1.292988854E1,3.122506714E-1,-5.512736206E0,-6.201603699E-1,5.556290115E0
1.293987354E1,8.068222046E-1,-1.114791779E1,-5.519023132E-1,1.119069387E1
1.294985854E1,1.047671356E0,-1.893397659E1,-1.243913269E-1,1.896334776E1
1.295984354E1,6.255491638E-1,-2.769420959E1,1.678759003E0,2.775209521E1
1.296982954E1,-3.002755737E-1,-3.486280243E1,4.502037964E0,3.515357029E1
1.297981454E1,-1.682052155E0,-3.733416321E1,5.786666565E0,3.781738425E1
1.298979954E1,-2.569257202E0,-2.839355530E1,3.636986847E0,2.874061131E1
1.299978554E1,-2.258353729E0,-1.675630508E1,3.435356140E-1,1.691129618E1
1.300977054E1,-1.434017944E0,-1.073732162E1,-2.287543030E0,1.107155528E1
1.301975554E1,-8.963360596E-1,-7.262297974E0,-4.851710815E0,8.779720270E0
1.302974154E1,-3.031196594E-1,-4.811743927E0,-6.911128235E0,8.426651448E0
1.303972654E1,2.891986084E-1,-2.949466553E0,-8.050109711E0,8.578301413E0
1.304971154E1,7.191046143E-1,-2.020049286E0,-7.881560211E0,8.168029256E0
1.305969754E1,9.966275024E-1,-2.185006256E0,-6.769223328E0,7.182611167E0
1.306968254E1,7.899073792E-1,-3.198698273E0,-5.124743042E0,6.092504867E0
1.307966754E1,2.113604736E-1,-5.007985840E0,-3.177143097E0,5.934545786E0
1.308965354E1,-2.260299683E-1,-7.280709686E0,-1.109043732E0,7.368161309E0
1.309963854E1,-3.267704773E-1,-9.486971741E0,9.792636108E-1,9.542974849E0
1.310962354E1,-2.332150269E-1,-1.133532806E1,2.692600708E0,1.165307471E1
1.311960954E1,-2.890489197E-1,-1.285317169E1,3.892355804E0,1.343272145E1
1.312959454E1,-5.098397827E-1,-1.394425278E1,4.594096527E0,1.469039976E1
1.313957954E1,-7.421566772E-1,-1.427012512E1,4.650229797E0,1.502703912E1
1.314956554E1,-8.587641907E-1,-1.358619736E1,4.259242859E0,1.426405918E1
1.315955054E1,-6.267466736E-1,-1.183603683E1,3.338507538E0,1.231382199E1
1.316953554E1,-4.008663940E-1,-1.018092865E1,2.318827972E0,1.044935238E1
1.317952154E1,-2.674937439E-1,-8.995094604E0,1.691183167E0,9.156603101E0
1.318950654E1,-9.804611206E-2,-8.221503296E0,1.258133698E0,8.317789964E0
1.319949154E1,3.442840576E-2,-7.811655579E0,9.577084351E-1,7.870219415E0
1.320947754E1,7.918533325E-2,-7.776029663E0,7.940986633E-1,7.816872797E0
1.321946254E1,7.394622803E-2,-8.211474152E0,7.885601807E-1,8.249581986E0
1.322944754E1,6.077362061E-2,-8.973090363E0,9.375004578E-1,9.022136731E0
1.323943254E1,5.254074097E-2,-9.694290619E0,1.096020813E0,9.756192534E0
1.324941854E1,7.604187012E-2,-1.019904099E1,1.108894043E0,1.025942812E1
1.325940354E1,1.199006653E-1,-1.040261765E1,7.825726318E-1,1.043270099E1
1.326938854E1,1.487905884E-1,-1.035172348E1,2.017803955E-1,1.035475895E1
1.327937454E1,-1.302291870E-2,-1.020667511E1,-4.087998962E-1,1.021486680E1
1.328935954E1,-4.565505981E-1,-1.001731888E1,-8.798703003E-1,1.006624497E1
1.329934454E1,-9.454339600E-1,-9.826316071E0,-1.103654938E0,9.933196218E0
1.330933054E1,-1.276096344E0,-9.690099335E0,-1.118174744E0,9.837518069E0
1.331931554E1,-1.503623199E0,-9.659263458E0,-9.590556335E-1,9.822527220E0
1.332930054E1,-1.662293243E0,-9.756860504E0,-7.171586609E-1,9.923399733E0
1.333928654E1,-1.791923676E0,-9.923913116E0,-4.915777588E-1,1.009637017E1
1.334927154E1,-1.916614380E0,-1.010773087E1,-3.344046021E-1,1.029327258E1
1.335925654E1,-2.030976563E0,-1.022119492E1,-2.490820312E-1,1.042399795E1
1.336924254E1,-2.136357422E0,-1.025921585E1,-2.106120300E-1,1.048140689E1
1.337922754E1,-2.186503143E0,-1.018317398E1,-1.803749084E-1,1.041683078E1
1.338921254E1,-2.137704620E0,-1.002001328E1,-9.415420532E-2,1.024594125E1
1.339919854E1,-1.959575043E0,-9.789941711E0,1.197509766E-2,9.984139245E0
1.340918354E1,-1.711091766E0,-9.625882874E0,1.703457642E-1,9.778265378E0
1.341916854E1,-1.521885223E0,-9.521549835E0,3.204835510E-1,9.647733185E0
1.342915454E1,-1.296154633E0,-9.494755554E0,4.510121155E-1,9.593425446E0
1.343913954E1,-1.091530151E0,-9.537566528E0,5.562432861E-1,9.615925330E0
1.344912454E1,-9.304650879E-1,-9.671987000E0,6.206094360E-1,9.736439486E0
1.345911054E1,-8.059240723E-1,-9.926607513E0,6.333329773E-1,9.979386805E0
1.346909554E1,-7.189549255E-1,-1.028271698E1,5.378315735E-1,1.032184225E1
1.347908054E1,-7.027885437E-1,-1.063613205E1,3.115022278E-1,1.066387595E1
1.348906654E1,-7.128176880E-1,-1.105346420E1,-7.319778442E-2,1.107666637E1
1.349905154E1,-7.276368713E-1,-1.140732834E1,-6.649172974E-1,1.144983451E1
1.350903654E1,-8.108638000E-1,-1.150342850E1,-1.311123505E0,1.160626607E1
1.351902254E1,-9.032217407E-1,-1.143127853E1,-2.009720764E0,1.164168871E1
1.352900754E1,-9.321116638E-1,-1.125629242E1,-2.982398071E0,1.168193689E1
1.353899254E1,-5.688171387E-1,-1.104538101E1,-5.551505585E0,1.237510440E1
1.354897854E1,-1.408570862E-1,-1.072819061E1,-6.283932495E0,1.243389409E1
1.355896354E1,-4.016148376E-1,-1.006447083E1,-4.327949982E0,1.096293841E1
1.356894854E1,-4.793032837E-1,-9.248966675E0,-2.247276764E0,9.530129540E0
1.357893354E1,4.176315308E-2,-8.431067505E0,-3.146456909E-1,8.437040082E0
1.358891954E1,5.866300964E-1,-7.832162933E0,3.905378723E-1,7.863805117E0
1.359890454E1,1.446741486E0,-7.312892761E0,1.945953369E-3,7.454627103E0
1.360888954E1,2.789748688E0,-6.804400177E0,-4.016148376E-1,7.365042701E0
1.361887554E1,3.339555359E0,-5.918392639E0,-9.605525208E-1,6.863137954E0
1.362886054E1,3.170257416E0,-4.833897858E0,-9.925859070E-1,5.865349722E0
1.363884554E1,2.800226898E0,-3.674558716E0,-4.372407532E-1,4.640563750E0
1.364883154E1,2.500849457E0,-2.608026581E0,3.601510620E-1,3.631220103E0
1.365881654E1,2.044149170E0,-1.732796631E0,9.657916260E-1,2.848487925E0
1.366880154E1,1.352736969E0,-1.116677856E0,1.320553894E0,2.195615934E0
1.367878754E1,6.929090881E-1,-6.400689697E-1,1.718576202E0,1.960437567E0
1.368877254E1,2.013313293E-1,-2.944377136E-1,1.943258972E0,1.975723489E0
1.369875754E1,-1.734892273E-1,-2.676434326E-1,1.616638184E0,1.647801728E0
1.370874354E1,-3.861968994E-1,-9.660910034E-1,6.424639893E-1,1.222800004E0
1.371872854E1,1.995350647E-1,-2.896626434E0,-3.584895172E0,4.613212800E0
1.372871354E1,2.370620270E0,-6.973698120E0,-1.641321854E1,1.799016533E1
1.373869954E1,3.468886414E0,-1.268701721E1,-2.121089172E1,2.495787464E1
1.374868454E1,2.548899536E0,-1.750385056E1,-1.264645157E1,2.174429604E1
1.375866954E1,2.517015839E0,-2.192999634E1,-4.934338989E0,2.261874907E1
1.376865554E1,1.125808868E0,-2.380424881E1,1.491498413E0,2.387748468E1
1.377864054E1,-1.077010345E0,-2.113440079E1,4.025728455E0,2.154134020E1
1.378862554E1,-1.076860657E0,-1.960548019E1,3.893553314E0,2.001734847E1
1.379861171E1,-9.190887451E-2,-2.133423523E1,3.367846527E0,2.159862103E1
1.380859671E1,1.890568542E0,-2.395887726E1,1.279539185E0,2.406739017E1
1.381858171E1,6.133046265E0,-2.813818634E1,-4.078867950E0,2.908623301E1
1.382856771E1,1.012988480E1,-3.245955002E1,-5.355563049E0,3.442265256E1
1.383855271E1,1.062236069E1,-3.467239838E1,-1.757345581E0,3.630561966E1
1.384853771E1,8.214467926E0,-3.469754608E1,-7.770341492E-1,3.566512259E1
1.385852371E1,5.434748383E0,-3.178280731E1,-5.774990845E-1,3.224929202E1
1.386850871E1,4.504283295E0,-2.648906570E1,-4.156855774E-1,2.687251318E1
1.387849371E1,4.667893066E0,-2.114577713E1,-6.791377258E-1,2.166551048E1
1.388847971E1,4.633314972E0,-1.725985794E1,-8.816665649E-1,1.789267000E1
1.389846471E1,3.770060120E0,-1.426144318E1,-1.046174469E0,1.478839396E1
1.390844971E1,2.211052094E0,-1.175041489E1,-1.442101135E0,1.204328265E1
1.391843471E1,5.218148804E-1,-9.009464722E0,-1.981728973E0,9.239588468E0
1.392842071E1,-8.565188599E-1,-5.904471588E0,-2.951113129E0,6.656236023E0
1.393840571E1,-1.764830017E0,-2.944826202E0,-4.345912628E0,5.538373671E0
1.394839071E1,-2.019899597E0,-9.901908875E-1,-4.576732635E0,5.099701363E0
1.395837671E1,-1.874551849E0,4.685256958E-2,-3.705993347E0,4.153375313E0
1.396836171E1,-1.658101959E0,7.197033691E-1,-2.753823395E0,3.294058035E0
1.397834671E1,-1.427281952E0,9.530680847E-1,-1.999541931E0,2.635078837E0
1.398833271E1,-1.118324432E0,9.627978516E-1,-1.237027588E0,1.925582118E0
1.399831771E1,-7.909552002E-1,9.556127930E-1,-8.634045410E-1,1.511381269E0
1.400830271E1,-6.378236389E-1,9.559121704E-1,-6.959028625E-1,1.343453708E0
1.401828871E1,-6.574328613E-1,9.312135315E-1,-7.469467163E-1,1.362830145E0
1.402827371E1,-6.578819275E-1,1.032552795E0,-1.275198212E0,1.767796477E0
1.403825871E1,-4.816983032E-1,1.201401672E0,-1.818568268E0,2.232171539E0
1.404824471E1,-3.547622681E-1,1.279688873E0,-1.441801758E0,1.960166367E0
1.405822971E1,-3.698808289E-1,1.386716309E0,-4.311035156E-1,1.498547360E0
1.406821471E1,-3.240760803E-1,1.303190002E0,5.384303284E-1,1.446802235E0
1.407820071E1,-2.562670898E-1,1.296603699E0,1.001567230E0,1.658309648E0
1.408818571E1,-2.246827698E-1,1.290017395E0,1.333576813E0,1.868971466E0
1.409817071E1,-3.855981445E-1,1.270557861E0,1.800156555E0,2.236865403E0
1.410815671E1,-8.126600647E-1,1.347647552E0,2.346221008E0,2.825123595E0
1.411814171E1,-1.188229065E0,1.487307129E0,2.723586273E0,3.322934395E0
1.412812671E1,-1.395547943E0,1.577270050E0,2.743195496E0,3.458389278E0
1.413811271E1,-1.308728485E0,1.506766663E0,2.273322601E0,3.025080441E0
1.414809771E1,-1.043330383E0,1.325792999E0,1.475332031E0,2.241176023E0
1.415808271E1,-7.586224365E-1,1.110839996E0,8.617579651E-1,1.597529433E0
1.416806871E1,-5.484594727E-1,9.192384338E-1,5.119354248E-1,1.186543286E0
1.417805371E1,-4.656816101E-1,7.955955505E-1,3.140469360E-1,9.738876322E-1
1.418803871E1,-4.376898193E-1,7.526348877E-1,2.112107849E-1,8.959027000E-1
1.419802471E1,-4.927752686E-1,7.785310364E-1,1.517843628E-1,9.337968369E-1
1.420800971E1,-6.066883850E-1,7.089257812E-1,1.056802368E-1,9.390499839E-1
1.421799471E1,-5.351371765E-1,3.526666260E-1,-9.280700684E-3,6.409615263E-1
1.422797971E1,-3.794609070E-1,-3.203338623E-2,-1.814227295E-1,4.218185920E-1
1.423796571E1,-2.900967407E-1,-3.393443298E-1,-3.620970154E-1,5.748260100E-1
1.424795071E1,-3.366499329E-1,-6.240522766E-1,-6.640191650E-1,9.714401025E-1
1.425793571E1,-4.614903259E-1,-1.320553894E0,-1.077010345E0,1.765442492E0
1.426792171E1,-1.170565796E0,-2.558928680E0,2.559677124E-1,2.825572463E0
1.427790671E1,-2.778522034E0,-9.058562622E0,3.226540375E0,1.000941078E1
1.428789171E1,-7.396868134E0,-3.602199188E1,4.564009094E0,3.705573824E1
1.429787771E1,-1.638507706E1,-6.163253448E1,4.689747620E-1,6.377507346E1
1.430786271E1,-1.702649323E1,-7.865603394E1,-1.401146301E1,8.168839723E1
1.431784771E1,3.833977203E0,-7.410459869E1,-2.276900162E1,7.761841511E1
1.432783371E1,1.485465958E1,-5.009647385E1,-1.812670532E1,5.530727844E1
1.433781871E1,7.751031647E0,-2.871583511E1,-6.099066925E0,3.036241583E1
1.434780371E1,2.146685944E0,-1.775472885E1,2.805166626E-1,1.788623344E1
1.435778971E1,7.262896729E-1,-1.100167191E1,1.476679230E0,1.112406684E1
1.436777471E1,7.732919312E-1,-6.513854370E0,1.053060150E0,6.643584488E0
1.437775971E1,5.028044128E-1,-3.813170471E0,1.160237274E0,4.017366283E0
1.438774571E1,5.179229736E-2,-2.374063110E0,1.743274841E0,2.945821662E0
1.439773071E1,-1.564247131E-1,-1.433119812E0,2.178869019E0,2.612617708E0
1.440771571E1,-2.082170105E-1,-7.604187012E-1,2.047142944E0,2.193714922E0
1.441770171E1,-3.493734741E-1,-4.032614136E-1,1.692979431E0,1.775066463E0
1.442768671E1,-3.459306335E-1,-2.911445618E-1,1.213676147E0,1.295161361E0
1.443767171E1,-5.658233643E-2,-2.565664673E-1,7.427554321E-1,7.878537586E-1
1.444765771E1,2.288740540E-1,-3.559597778E-1,4.022135925E-1,5.838377086E-1
1.445764271E1,4.201762390E-1,-4.978646851E-1,2.266287231E-1,6.897665508E-1
1.446762771E1,5.647755432E-1,-6.747967529E-1,1.431024170E-1,8.915157731E-1
1.447761371E1,7.009922791E-1,-8.469387817E-1,1.615141296E-1,1.111207582E0
1.448759871E1,9.267228699E-1,-1.028511200E0,1.541793823E-1,1.392990254E0
1.449758371E1,1.312620392E0,-1.281934204E0,1.167572021E-1,1.838466709E0
1.450756971E1,1.704206085E0,-1.717378693E0,1.519340515E-1,2.424209543E0
1.451755471E1,2.007475433E0,-2.444865875E0,1.654060364E-1,3.167757238E0
1.452753971E1,2.320324860E0,-3.516936493E0,1.332229614E-1,4.215506862E0
1.453752571E1,2.781964874E0,-5.081033936E0,1.877096558E-1,5.795814812E0
1.454751071E1,3.553310852E0,-7.570656738E0,3.050656128E-1,8.368627515E0
1.455749571E1,4.654720459E0,-1.150163223E1,5.824388123E-1,1.242148145E1
1.456748071E1,5.908513184E0,-1.724803253E1,1.041085052E0,1.826168153E1
1.457746671E1,7.081773376E0,-2.401665710E1,1.723515930E0,2.509824376E1
1.458745171E1,7.448361053E0,-3.000794815E1,2.762655029E0,3.104170255E1
1.459743671E1,6.443051605E0,-3.271521835E1,3.149450684E0,3.349205078E1
1.460742271E1,2.547702026E0,-2.591396164E1,-1.269360352E-1,2.603920710E1
1.461740771E1,7.331753540E-1,-1.659898224E1,-5.096751251E0,1.737931618E1
1.462739271E1,1.153800659E0,-1.051069290E1,-1.249691254E1,1.637005633E1
1.463737871E1,2.365979919E0,-5.810916138E0,-2.030108368E1,2.124849656E1
1.464736371E1,3.268902283E0,-4.118385773E0,-1.349533630E1,1.448347077E1
1.465734871E1,3.097957764E0,-4.165687408E0,-6.706354065E0,8.480889030E0
1.466733471E1,2.893932037E0,-4.373305664E0,-3.452869720E0,6.278770132E0
1.467731971E1,2.699187012E0,-4.808001709E0,-5.688171387E-2,5.514138780E0
1.468730471E1,2.580633545E0,-5.310057678E0,2.829416199E0,6.546905992E0
1.469729071E1,2.616558838E0,-5.913752289E0,4.434228973E0,7.840996931E0
1.470727571E1,2.526446228E0,-6.624474335E0,5.087021484E0,8.726074624E0
1.471726071E1,2.370620270E0,-7.664960632E0,5.224435730E0,9.574246219E0
1.472724671E1,2.551743622E0,-9.232650604E0,4.782105560E0,1.070615553E1
1.473723171E1,2.643353119E0,-1.073567505E1,4.005071411E0,1.175936357E1
1.474721671E1,2.447260895E0,-1.157063873E1,3.242257690E0,1.226299317E1
1.475720271E1,2.115700378E0,-1.182076859E1,2.549049225E0,1.227617245E1
1.476718771E1,1.810335388E0,-1.164174088E1,2.014510803E0,1.195264400E1
1.477717271E1,1.578317871E0,-1.113743958E1,1.637295227E0,1.136725047E1
1.478715871E1,1.335522766E0,-1.056248520E1,1.353485413E0,1.073227084E1
1.479714354E1,1.096020813E0,-1.009096573E1,7.923023987E-1,1.018118824E1
1.480712854E1,9.419911194E-1,-9.698032837E0,-1.677411804E0,9.887006551E0
1.481711454E1,9.592053223E-1,-1.009470795E1,-4.987628174E0,1.130042646E1
1.482709954E1,9.416917419E-1,-1.115151031E1,-6.696923676E0,1.304192288E1
1.483708454E1,5.138813782E-1,-1.197090637E1,-7.744744720E0,1.426701595E1
1.484707054E1,1.844165039E-1,-1.236548584E1,-8.027207336E0,1.474365311E1
1.485705554E1,1.856140137E-2,-1.234677475E1,-6.502328339E0,1.395433499E1
1.486704054E1,-9.056167603E-2,-1.233390152E1,-4.482877808E0,1.312362456E1
1.487702654E1,-2.170486450E-2,-1.252265900E1,-2.692001953E0,1.280876005E1
1.488701154E1,2.273771667E-1,-1.263297958E1,-1.059945831E0,1.267940688E1
1.489699654E1,5.828878784E-1,-1.243104950E1,1.417552185E-1,1.244551503E1
1.490698254E1,8.175997925E-1,-1.185609512E1,7.782316589E-1,1.190970636E1
1.491696754E1,9.020242310E-1,-1.088701035E1,7.599696350E-1,1.095071668E1
1.492695254E1,9.169931030E-1,-9.807155914E0,2.618055725E-1,9.853411878E0
1.493693754E1,1.022972717E0,-8.802295532E0,-1.014889526E-1,8.862120504E0
1.494692354E1,1.121467896E0,-7.852670288E0,-2.353106689E-1,7.935835936E0
1.495690854E1,1.169368286E0,-7.073839874E0,-3.662882996E-1,7.179192146E0
1.496689354E1,1.298250275E0,-6.525530090E0,-4.650828552E-1,6.669655073E0
1.497687954E1,1.297950897E0,-6.164630585E0,-4.772076416E-1,6.317837756E0
1.498686454E1,1.227896576E0,-5.940995636E0,-3.338058472E-1,6.075737444E0
1.499684954E1,1.202449493E0,-5.956413574E0,-2.073188782E-1,6.080109256E0
1.500683554E1,1.259630585E0,-6.251749420E0,-1.498384094E-1,6.379145050E0
1.501682054E1,1.345402222E0,-6.607260132E0,-7.723937988E-2,6.743289962E0
1.502680554E1,1.431473236E0,-7.045399017E0,-1.068777466E-1,7.190145047E0
1.503679154E1,1.529369659E0,-7.468569031E0,-2.562670898E-1,7.627854727E0
1.504677654E1,1.614093475E0,-7.873477020E0,-4.843927002E-1,8.051805662E0
1.505676154E1,1.691183167E0,-8.330626373E0,-7.903564453E-1,8.537218492E0
1.506674754E1,1.910028076E0,-8.897647247E0,-1.121767273E0,9.169225464E0
1.507673254E1,2.316432953E0,-9.466165009E0,-1.463955688E0,9.854811406E0
1.508671754E1,2.826422424E0,-9.959688721E0,-1.808988190E0,1.050982880E1
1.509670354E1,3.320544891E0,-1.034618500E1,-2.163750458E0,1.107932211E1
1.510668854E1,3.692671051E0,-1.056173676E1,-2.510878601E0,1.146693569E1
1.511667354E1,3.906276855E0,-1.063104263E1,-2.792592773E0,1.166518927E1
1.512665954E1,3.745660858E0,-1.063209045E1,-3.070115662E0,1.168319018E1
1.513664454E1,3.229534149E0,-1.069900131E1,-3.170556793E0,1.161683908E1
1.514662954E1,2.583028564E0,-1.080513062E1,-3.173400879E0,1.155393255E1
1.515661554E1,1.962568817E0,-1.089853638E1,-3.339555359E0,1.156643426E1
1.516660054E1,1.410217438E0,-1.086680237E1,-3.540886688E0,1.151581458E1
1.517658554E1,9.749226379E-1,-1.062280975E1,-3.650608521E0,1.127481724E1
1.518657154E1,6.852749634E-1,-1.018781433E1,-3.562142487E0,1.081434333E1
1.519655654E1,4.079017639E-1,-9.623188477E0,-3.231480103E0,1.015945884E1
1.520654154E1,1.182540894E-2,-9.055568848E0,-2.745889893E0,9.462736301E0
1.521652754E1,-4.727169800E-1,-8.473130035E0,-2.226470032E0,8.773514845E0
1.522651254E1,-8.843609619E-1,-7.876770172E0,-1.864073639E0,8.142504110E0
1.523649754E1,-1.177152100E0,-7.336693268E0,-1.733096008E0,7.629965724E0
1.524648354E1,-1.287023621E0,-6.893015900E0,-1.770368500E0,7.232171363E0
1.525646854E1,-1.285526733E0,-6.514602814E0,-1.918710022E0,6.911879408E0
1.526645354E1,-1.206790466E0,-6.196813660E0,-2.084864502E0,6.648571482E0
1.527643854E1,-1.037043457E0,-5.965394897E0,-2.156266022E0,6.427353932E0
1.528642454E1,-4.610412598E-1,-5.843847656E0,-2.113455048E0,6.231356731E0
1.529640954E1,4.439767456E-1,-5.683680725E0,-1.948947144E0,6.024926299E0
1.530639454E1,1.280287628E0,-5.389991455E0,-1.483714600E0,5.735202988E0
1.531638054E1,2.099833374E0,-5.113217010E0,-6.414161682E-1,5.564683558E0
1.532636554E1,2.311044159E0,-5.549559631E0,-1.039887543E0,6.100811693E0
1.533635054E1,1.733994141E0,-6.670279083E0,-4.341122589E0,8.145225845E0
1.534633654E1,3.092568970E0,-8.491841125E0,-1.286574554E1,1.572268288E1
1.535632154E1,3.251837769E0,-1.018272491E1,-1.640363846E1,1.957911362E1
1.536630654E1,3.043770447E0,-1.047401917E1,-1.121063736E1,1.564122777E1
1.537629254E1,3.105442200E0,-1.024379791E1,-3.629053345E0,1.130261895E1
1.538627754E1,2.649490356E0,-9.940827942E0,2.766846313E0,1.065341719E1
1.539626254E1,1.747466125E0,-9.735754395E0,5.349276123E0,1.124514591E1
1.540624854E1,2.127076721E0,-1.079076050E1,6.671626282E0,1.286373059E1
1.541623354E1,2.877915344E0,-1.236773117E1,7.951913910E0,1.498252669E1
1.542621854E1,3.560196533E0,-1.457339447E1,7.796537018E0,1.690694577E1
1.543620454E1,4.345762939E0,-1.807536209E1,5.676795044E0,1.943785925E1
1.544618954E1,8.264463959E0,-2.464325409E1,9.226812744E-1,2.600851163E1
1.545617454E1,1.292891418E1,-3.177592163E1,-3.693569183E0,3.450374575E1
1.546616054E1,1.509850250E1,-3.539075455E1,-5.052443390E0,3.880718322E1
1.547614554E1,1.480316666E1,-3.489139297E1,-5.522615662E0,3.830198860E1
1.548613054E1,1.264435593E1,-3.247691391E1,-5.937702484E0,3.535372660E1
1.549611654E1,9.713450775E0,-2.920501785E1,-4.932542725E0,3.117072619E1
1.550610154E1,7.471862183E0,-2.447590210E1,-3.902983704E0,2.588690383E1
1.551608654E1,5.689967651E0,-1.876018799E1,-4.071682892E0,2.002246206E1
1.552607254E1,4.092190247E0,-1.418899384E1,-3.951033783E0,1.528673396E1
1.553605754E1,1.913171539E0,-1.152483398E1,-3.530707855E0,1.220442222E1
1.554604254E1,-9.806108093E-1,-9.134005737E0,-3.170856171E0,9.718332533E0
1.555602854E1,-3.282673645E0,-6.892566833E0,-2.379002838E0,7.996441603E0
1.556601354E1,-4.790488129E0,-4.733456726E0,-1.532213745E0,6.906668376E0
1.557599854E1,-5.458848267E0,-2.838696899E0,-1.915716248E0,6.444159621E0
1.558598454E1,-5.909411316E0,-1.584904175E0,-2.068847809E0,6.458575276E0
1.559596954E1,-5.927823029E0,-6.891668701E-1,-2.086660767E0,6.322040018E0
1.560595454E1,-5.667364655E0,-1.070274353E-1,-2.603685608E0,6.237760475E0
1.561593954E1,-4.561614075E0,4.276606750E-1,-3.199746094E0,5.588344270E0
1.562592554E1,-2.394720154E0,9.779164124E-1,-3.054997101E0,4.003000426E0
1.563591054E1,-1.359173584E-1,1.113384705E0,-3.077749786E0,3.275765983E0
1.564589554E1,7.982899475E-1,1.092877350E0,-3.088976440E0,3.372450621E0
1.565588154E1,9.443861389E-1,1.099763031E0,-2.789449310E0,3.143623921E0
1.566586654E1,1.030457153E0,1.100212097E0,-2.021995239E0,2.522057365E0
1.567585154E1,1.061293030E0,1.112336884E0,-6.514453125E-1,1.669735678E0
1.568583754E1,1.023571472E0,1.110839996E0,8.611592102E-1,1.738752208E0
1.569582254E1,9.764195251E-1,1.102906494E0,1.989063721E0,2.475110565E0
1.570580754E1,9.054670715E-1,1.072220306E0,2.329605560E0,2.719667088E0
1.571579354E1,7.363188171E-1,1.044078827E0,2.345771942E0,2.671125606E0
1.572577854E1,5.288502502E-1,1.014889526E0,2.250719604E0,2.524959817E0
1.573576354E1,2.869532776E-1,1.008303223E0,2.150278473E0,2.392219698E0
1.574574954E1,6.122268677E-2,1.050665131E0,2.068997498E0,2.321291899E0
1.575573454E1,-3.367996216E-2,1.008901978E0,1.785337372E0,2.050962474E0
1.576571954E1,7.783813477E-3,8.674461365E-1,1.422940979E0,1.666518652E0
1.577570554E1,1.435514832E-1,7.312294006E-1,1.068777466E0,1.302915475E0
1.578569054E1,3.092568970E-1,5.507048035E-1,7.572752380E-1,9.860940092E-1
1.579567554E1,3.760180664E-1,4.004173279E-1,5.554948425E-1,7.812158106E-1
1.580566129E1,3.999682617E-1,3.164419556E-1,4.288581848E-1,6.663553589E-1
1.581564629E1,3.882925415E-1,2.161505127E-1,3.079096985E-1,5.406482446E-1
1.582563129E1,3.261717224E-1,7.529342651E-2,1.477427673E-1,3.659030170E-1
1.583561729E1,1.513352966E-1,-1.360670471E-1,-5.673202515E-2,2.112702913E-1
1.584560229E1,1.182540894E-1,-2.402503967E-1,-2.350112915E-1,3.562788092E-1
1.585558729E1,2.261796570E-1,-3.631448364E-1,-3.110531616E-1,5.289475199E-1
1.586557329E1,2.456391907E-1,-5.906716919E-1,4.340972900E-3,6.397268977E-1
1.587555829E1,1.781295776E-2,-1.074765015E0,9.282197571E-1,1.420221481E0
1.588554329E1,-8.884025574E-1,-3.421285400E0,1.674567719E0,3.911346308E0
1.589552929E1,-7.575446777E0,-2.040661423E1,1.988315277E0,2.185796641E1
1.590551429E1,-1.924502975E1,-4.891797455E1,-4.189787292E0,5.273417982E1
1.591549929E1,-2.008448410E1,-7.351332825E1,-2.246797760E1,7.945065103E1
1.592548529E1,-5.208868103E0,-7.205655762E1,-1.937810303E1,7.479833340E1
1.593547029E1,5.867648163E0,-5.643204895E1,-1.372151596E1,5.837195768E1
1.594545529E1,5.812263336E0,-3.504826675E1,-2.151026917E0,3.559199804E1
1.595544129E1,7.512876892E-1,-2.232173172E1,5.248535614E0,2.294278244E1
1.596542629E1,-9.038204956E-1,-1.571462128E1,6.989116058E0,1.722248404E1
1.597541129E1,-1.188079376E0,-1.161973663E1,7.080276489E0,1.365870152E1
1.598539729E1,-9.226812744E-1,-8.436605988E0,6.951843567E0,1.097067866E1
1.599538229E1,-6.351292419E-1,-6.790329437E0,5.633684692E0,8.845923707E0
1.600536729E1,-4.372407532E-1,-5.823939056E0,3.970493317E0,7.062171252E0
1.601535329E1,-9.565109253E-2,-4.840783539E0,2.739453278E0,5.562997273E0
1.602533829E1,4.474195862E-1,-3.977977753E0,1.876198425E0,4.420928841E0
1.603532329E1,9.078620911E-1,-3.456611938E0,1.308728485E0,3.805936142E0
1.604530829E1,1.207089844E0,-3.297343140E0,7.104226685E-1,3.582490480E0
1.605529429E1,1.775158539E0,-3.465443573E0,-2.918930054E-2,3.893756414E0
1.606527929E1,2.545606384E0,-3.837569733E0,-3.092568970E-1,4.615484064E0
1.607526429E1,3.673361206E0,-3.945195923E0,-3.565585327E-1,5.402340919E0
1.608525029E1,4.245770874E0,-3.567980347E0,-3.953279114E-1,5.559976459E0
1.609523529E1,4.094435577E0,-2.990032196E0,-8.268804932E-1,5.136966671E0
1.610522029E1,3.130739594E0,-2.028581543E0,-1.597178650E0,4.058035623E0
1.611520629E1,1.813478851E0,-1.098415833E0,-2.562221832E0,3.325688440E0
1.612519129E1,4.733157349E-1,-5.890251160E-1,-3.486250305E0,3.567200522E0
1.613517629E1,-6.972500610E-1,-4.929249573E-1,-4.298610992E0,4.382600726E0
1.614516229E1,-1.369502106E0,-7.544311523E-1,-4.836143188E0,5.082615795E0
1.615514729E1,-1.465602264E0,-1.434916077E0,-5.140610046E0,5.534694734E0
1.616513229E1,-1.295106812E0,-2.586022339E0,-5.145100708E0,5.902277059E0
1.617511829E1,-1.089883575E0,-4.340673523E0,-4.663402405E0,6.463483181E0
1.618510329E1,-7.996371460E-1,-7.195237427E0,-3.766916656E0,8.160914305E0
1.619508829E1,-1.845661926E-1,-1.163859741E1,-2.729723511E0,1.195585233E1
1.620507429E1,5.830375671E-1,-1.731389557E1,-1.291663971E0,1.737179635E1
1.621505929E1,1.097218323E0,-2.330907852E1,8.646020508E-1,2.335090076E1
1.622504429E1,5.601351929E-1,-3.026062271E1,2.909499664E0,3.040533221E1
1.623503029E1,-8.637039185E-1,-3.488106445E1,4.292324066E0,3.515478186E1
1.624501529E1,-2.564167786E0,-3.078917358E1,3.849544830E0,3.113466174E1
1.625500029E1,-3.348985748E0,-1.989348129E1,2.240391083E0,2.029742978E1
1.626498629E1,-2.692001953E0,-1.281919235E1,6.159690857E-1,1.311327514E1
1.627497129E1,-1.662742310E0,-8.863817596E0,-2.474354553E-1,9.021817925E0
1.628495629E1,-8.937913513E-1,-6.081403656E0,-8.523275757E-1,6.205545560E0
1.629494229E1,-1.383123779E-1,-4.172872467E0,-1.610201569E0,4.474901567E0
1.630492729E1,4.020639038E-1,-3.005450134E0,-2.353555756E0,3.838438561E0
1.631491229E1,9.997709656E-1,-2.559527435E0,-3.047512665E0,4.103420051E0
1.632489829E1,1.768871613E0,-2.736010437E0,-3.217409363E0,4.578906300E0
1.633488329E1,2.462678833E0,-3.342100067E0,-2.547252960E0,4.870617778E0
1.634486829E1,2.824925537E0,-4.260440369E0,-1.285377045E0,5.271029366E0
1.635485429E1,2.852617950E0,-5.400619354E0,1.796264648E-1,6.110350583E0
1.636483929E1,2.600991211E0,-6.696923676E0,1.361418915E0,7.312140826E0
1.637482429E1,2.002535706E0,-8.064030762E0,2.119143219E0,8.574934948E0
1.638481029E1,1.586999817E0,-9.540410614E0,2.433489532E0,9.972957155E0
1.639479529E1,1.260528717E0,-1.120270386E1,2.652184753E0,1.158117396E1
1.640478029E1,8.855584717E-1,-1.290361679E1,2.787952423E0,1.323103242E1
1.641476529E1,5.788462830E-1,-1.429197968E1,2.779120789E0,1.457117903E1
1.642475129E1,2.180964661E-1,-1.491019409E1,2.612217865E0,1.513886178E1
1.643473629E1,-7.424560547E-2,-1.445918198E1,2.233954468E0,1.463092644E1
1.644472129E1,-2.896476746E-1,-1.274823990E1,1.705702972E0,1.286510548E1
1.645470729E1,-5.287005615E-1,-1.066936295E1,9.877958679E-1,1.072802734E1
