"Time (s)","Acceleration x (m/s^2)","Acceleration y (m/s^2)","Acceleration z (m/s^2)","Absolute acceleration (m/s^2)"
3.201458334E-3,-3.937262421E0,4.061504059E0,7.103627930E0,9.080714749E0
1.326745833E-2,-3.865411835E0,4.052822113E0,7.286248169E0,9.190004794E0
2.333445833E-2,-3.608246613E0,4.056564331E0,7.704927521E0,9.425553877E0
3.340045833E-2,-3.308869171E0,4.070036316E0,8.181386719E0,9.718482363E0
4.346745833E-2,-3.098107452E0,4.100273438E0,8.692573700E0,1.009808643E1
5.353345833E-2,-2.769690399E0,4.122277679E0,9.066047058E0,1.033719340E1
6.360045833E-2,-2.429447937E0,4.123774567E0,9.284891968E0,1.044590603E1
7.366645833E-2,-2.244732056E0,4.122577057E0,9.445957031E0,1.054801251E1
8.373345833E-2,-2.191442871E0,4.123325500E0,9.386979675E0,1.048425593E1
9.379945833E-2,-2.166145477E0,4.070485382E0,9.139843597E0,1.023707861E1
1.038664583E-1,-2.142344971E0,4.022734680E0,8.785680084E0,9.897485076E0
1.139324583E-1,-2.211052094E0,4.034260712E0,8.495134277E0,9.660813487E0
1.239994583E-1,-2.267035675E0,4.016597443E0,8.249046021E0,9.450887049E0
1.340654583E-1,-2.252665558E0,4.002377014E0,8.111182709E0,9.321202112E0
1.441324583E-1,-2.124082947E0,4.008663940E0,8.039182434E0,9.230902944E0
1.541984583E-1,-1.994302826E0,4.023483124E0,8.086783447E0,9.249958202E0
1.642654583E-1,-1.821262665E0,4.022584991E0,8.274044037E0,9.378592241E0
1.743314583E-1,-1.630708923E0,3.955674133E0,8.462202759E0,9.482375492E0
1.843984583E-1,-1.435963898E0,3.895349579E0,8.600814514E0,9.550379624E0
1.944644583E-1,-1.341061249E0,3.883673859E0,8.704848175E0,9.625785665E0
2.045314583E-1,-1.378932495E0,3.831432495E0,8.731492767E0,9.634329024E0
2.145974583E-1,-1.542242889E0,3.751947784E0,8.697962494E0,9.597404694E0
2.246644583E-1,-1.739981689E0,3.708687744E0,8.622369690E0,9.546054689E0
2.347304583E-1,-1.961670685E0,3.697012024E0,8.505013733E0,9.478993004E0
2.447974583E-1,-2.118245087E0,3.630101166E0,8.441695404E0,9.430101697E0
2.548634583E-1,-2.211650848E0,3.546125793E0,8.341403961E0,9.329813914E0
2.649304583E-1,-2.266436920E0,3.470682678E0,8.207282867E0,9.194665118E0
2.749964583E-1,-2.216889954E0,3.434607697E0,8.095914459E0,9.069452135E0
2.850634583E-1,-1.877246246E0,3.544030151E0,8.061935120E0,9.004387878E0
2.951294583E-1,-1.424587555E0,3.685485992E0,8.105793915E0,9.017546878E0
3.051964583E-1,-9.421408081E-1,3.667972412E0,8.146958313E0,8.984129378E0
3.152624583E-1,-9.068142700E-1,3.710633698E0,8.477620697E0,9.298449722E0
3.253294583E-1,-7.610174561E-1,3.817661133E0,8.713979187E0,9.543957112E0
3.353954583E-1,-5.840853882E-1,3.879482574E0,8.751850433E0,9.590955468E0
3.454624583E-1,-7.132667542E-1,3.803291016E0,8.885971527E0,9.691968943E0
3.555284583E-1,-8.662486267E-1,3.687581635E0,8.917256470E0,9.688452299E0
3.655954583E-1,-1.150956573E0,3.671115875E0,8.899742889E0,9.695731860E0
3.756614583E-1,-1.402433624E0,3.699556732E0,8.912167053E0,9.750910812E0
3.857283333E-1,-1.545386353E0,3.624412994E0,8.872200165E0,9.707755884E0
3.957943333E-1,-1.481319580E0,3.583547974E0,8.733738098E0,9.555851869E0
4.058613333E-1,-1.350042572E0,3.578308868E0,8.745862885E0,9.545523920E0
4.159273333E-1,-1.079405365E0,3.536246338E0,8.769064636E0,9.516651128E0
4.259943333E-1,-9.256750488E-1,3.554957428E0,8.730594635E0,9.471952243E0
4.360603333E-1,-8.137078857E-1,3.550017700E0,8.659342804E0,9.394091973E0
4.461273333E-1,-7.339237976E-1,3.578757935E0,8.606802063E0,9.350037125E0
4.561933333E-1,-7.417076111E-1,3.618425446E0,8.580905914E0,9.342113208E0
4.662603333E-1,-8.214916992E-1,3.627556458E0,8.504115601E0,9.281917723E0
4.763263333E-1,-9.583071899E-1,3.625460815E0,8.425079956E0,9.221946164E0
4.863933333E-1,-1.142424316E0,3.622017975E0,8.361911316E0,9.183991963E0
4.964593333E-1,-1.267115021E0,3.567381592E0,8.244255981E0,9.071909864E0
5.065263333E-1,-1.276844788E0,3.481460266E0,8.110134888E0,8.917689504E0
5.165923333E-1,-1.049018555E0,3.322191467E0,8.029302979E0,8.752548337E0
5.266593333E-1,-7.559280396E-1,3.034340057E0,7.873327332E0,8.471595485E0
5.367253333E-1,-5.769003296E-1,2.641407166E0,7.617209930E0,8.082804769E0
5.467923333E-1,-4.315525818E-1,2.513123932E0,7.378755798E0,7.806924277E0
5.568583333E-1,-7.469467163E-2,2.507435760E0,7.147935791E0,7.575341541E0
5.669253333E-1,3.888912964E-1,2.539469147E0,6.950047302E0,7.409675937E0
5.769913333E-1,6.209088135E-1,2.549049225E0,7.037016449E0,7.510178441E0
5.870583333E-1,6.204597473E-1,2.487976227E0,7.239245911E0,7.679952953E0
5.971243333E-1,4.773573303E-1,2.305505676E0,7.418872375E0,7.783501382E0
6.071913333E-1,3.948788452E-1,2.071542206E0,7.469317474E0,7.761309164E0
6.172573333E-1,5.607339478E-1,1.814376984E0,7.330556030E0,7.572545022E0
6.273243333E-1,9.868977356E-1,1.498982849E0,6.996450806E0,7.222966191E0
6.373903333E-1,1.316063232E0,1.282832336E0,6.678511963E0,6.926774377E0
6.474573333E-1,1.655257874E0,1.066532135E0,6.411467285E0,6.707032292E0
6.575233333E-1,2.343526611E0,1.160237274E0,6.306834869E0,6.827476370E0
6.675903333E-1,2.573149109E0,1.333277435E0,6.569239197E0,7.180085562E0
6.776563333E-1,3.254232788E0,1.204245758E0,6.734046478E0,7.575461759E0
6.877233333E-1,3.189417572E0,1.062640228E0,7.415579224E0,8.142014734E0
6.977893333E-1,3.171454926E0,9.912387085E-1,8.047115936E0,8.706133207E0
7.078563333E-1,3.099604340E0,8.222401428E-1,8.468339996E0,9.055186812E0
7.179223333E-1,3.012036438E0,7.089257812E-1,8.653504944E0,9.190108110E0
7.279893333E-1,3.033741302E0,6.056405640E-1,8.596024475E0,9.135755227E0
7.380553333E-1,3.279081116E0,5.182223511E-1,8.565038910E0,9.185903271E0
7.481223333E-1,3.493435364E0,4.290078735E-1,8.627908173E0,9.318204646E0
7.581883333E-1,3.773502960E0,3.781137085E-1,8.751850433E0,9.538195876E0
7.682553333E-1,3.706592102E0,4.200265503E-1,8.906179504E0,9.655841790E0
7.783213333E-1,3.645219727E0,5.165757751E-1,9.028924255E0,9.750689750E0
7.883883333E-1,3.636238403E0,5.077441406E-1,9.175319824E0,9.882637690E0
7.984543333E-1,3.921245728E0,3.817062378E-1,9.442514191E0,1.023146822E1
8.085213333E-1,4.317471771E0,2.429447937E-1,9.831255798E0,1.074025955E1
8.185873333E-1,4.844076691E0,2.534230042E-1,1.020936951E1,1.130312027E1
8.286543333E-1,5.354664917E0,3.863465881E-1,1.004725662E1,1.139162261E1
8.387203333E-1,5.613177338E0,5.902226257E-1,9.690698090E0,1.121453307E1
8.487873333E-1,5.878126373E0,5.854325867E-1,9.200617218E0,1.093373030E1
8.588533333E-1,6.067332916E0,4.083508301E-1,8.951086121E0,1.082133180E1
8.689203333E-1,6.252048798E0,3.257226562E-1,8.997339935E0,1.096112838E1
8.789863333E-1,6.427184601E0,2.055226135E-1,9.058113556E0,1.110857158E1
8.890533333E-1,6.963369598E0,-9.624984741E-2,9.066945190E0,1.143272825E1
8.991193333E-1,7.531288605E0,-4.761598206E-1,8.940308533E0,1.169940823E1
9.091863333E-1,7.941585388E0,-6.801855469E-1,8.585246887E0,1.171485787E1
9.192523333E-1,8.170459442E0,-6.580316162E-1,8.061186676E0,1.149661445E1
9.293193333E-1,8.497678986E0,-5.909710693E-1,7.485334167E0,1.133975408E1
9.393853333E-1,9.026529236E0,-5.490582275E-1,7.088509369E0,1.149028546E1
9.494523333E-1,9.286089478E0,-4.649331665E-1,6.847809906E0,1.154729930E1
9.595183333E-1,9.422306213E0,-4.953199768E-1,6.668333130E0,1.155386788E1
9.695853333E-1,9.589209137E0,-7.794291687E-1,6.528523865E0,1.162678225E1
9.796513333E-1,9.483828278E0,-1.016536102E0,6.569239197E0,1.158150457E1
9.897183333E-1,9.228309631E0,-1.099463654E0,6.751560059E0,1.148712680E1
9.997843333E-1,8.907826080E0,-1.406026154E0,6.918163605E0,1.136605748E1
1.009851333E0,8.520281982E0,-1.632654877E0,6.902745667E0,1.108641803E1
1.019918333E0,8.183182983E0,-1.682800598E0,6.820117493E0,1.078472550E1
1.029984333E0,7.943082275E0,-1.729054413E0,6.998696136E0,1.072678576E1
1.040050333E0,7.944429474E0,-1.819466400E0,7.107370148E0,1.081383965E1
1.050117333E0,8.664581909E0,-1.800006866E0,7.311695251E0,1.147936809E1
1.060184333E0,9.504934387E0,-1.877545624E0,7.705226898E0,1.237899337E1
1.070250333E0,1.014470398E1,-1.954785004E0,8.276139679E0,1.323747299E1
1.080317333E0,1.046608566E1,-1.776655426E0,8.845854950E0,1.381827064E1
1.090383333E0,1.012195129E1,-1.669328613E0,9.151219940E0,1.374719544E1
1.100450333E0,9.592053223E0,-1.773362274E0,9.147477722E0,1.337268288E1
1.110516333E0,9.391620026E0,-1.512454834E0,8.813522186E0,1.296796899E1
1.120583333E0,9.392368469E0,-1.750759277E0,8.163873138E0,1.256704293E1
1.130649333E0,9.502539368E0,-1.804946594E0,7.650889893E0,1.233256676E1
1.140716333E0,9.373807068E0,-1.143621826E0,6.858587494E0,1.167117613E1
1.150782333E0,9.281149750E0,-7.451504517E-1,4.999752960E0,1.056846817E1
1.160849333E0,8.544531555E0,-1.638043671E0,4.633913727E0,9.857249261E0
1.170915333E0,8.614885254E0,-2.382745056E0,5.592669983E0,1.054379815E1
1.180982333E0,9.279203796E0,-1.581012268E0,6.212830353E0,1.127840786E1
1.191048333E0,9.139993286E0,-1.177451477E0,6.669231262E0,1.137561053E1
1.201115333E0,8.737330627E0,-1.478625183E0,6.715335388E0,1.111858841E1
1.211181333E0,8.429420929E0,-1.671873322E0,6.503376160E0,1.077702181E1
1.221248333E0,8.155041504E0,-1.666334839E0,6.272256775E0,1.042221564E1
1.231314333E0,7.882009277E0,-1.516795807E0,6.184239807E0,1.013269765E1
1.241381333E0,7.705376587E0,-1.438658295E0,6.518644409E0,1.019486591E1
1.251447333E0,7.844886475E0,-1.326242065E0,6.829398193E0,1.048531552E1
1.261514333E0,8.012837219E0,-1.116079102E0,5.708529053E0,9.901439128E0
1.271580333E0,8.259374542E0,-9.186396790E-1,4.932842102E0,9.664062184E0
1.281647333E0,8.348139954E0,-7.556286621E-1,4.751569061E0,9.635342438E0
1.291713333E0,8.397237854E0,-6.460565186E-1,4.645140381E0,9.618124649E0
1.301780333E0,8.376281433E0,-6.104306030E-1,4.656067657E0,9.602795541E0
1.311846333E0,8.310119019E0,-6.150709534E-1,4.925806732E0,9.679874087E0
1.321913333E0,8.221802673E0,-6.134243774E-1,5.331163788E0,9.818127927E0
1.331979333E0,7.950716400E0,-5.599855042E-1,5.727988586E0,9.815158088E0
1.342046333E0,7.831863556E0,-5.469625854E-1,5.931864624E0,9.839932558E0
1.352112333E0,7.627089386E0,-4.171824646E-1,5.931864624E0,9.671274561E0
1.362179333E0,7.270530853E0,-3.293151855E-1,5.692961426E0,9.240069111E0
1.372245333E0,6.857988739E0,-2.906954956E-1,5.672603760E0,8.904771015E0
1.382312333E0,6.946903839E0,-7.020401001E-2,5.357808380E0,8.773284003E0
1.392377708E0,7.538922729E0,1.984872437E-1,5.043462067E0,9.072555468E0
1.402444708E0,7.861202545E0,3.320095825E-1,4.891228638E0,9.264602172E0
1.412510708E0,7.845485229E0,3.773652649E-1,4.990023193E0,9.305609840E0
1.422577708E0,7.938142548E0,3.721261597E-1,5.012925568E0,9.395850559E0
1.432643708E0,8.254584503E0,2.454895020E-1,4.969815216E0,9.638334591E0
1.442710708E0,8.768016815E0,1.163081360E-1,5.009183350E0,1.009869122E1
1.452776708E0,9.530680847E0,2.335144043E-2,5.211712189E0,1.086261325E1
1.462843708E0,1.018392242E1,-1.663041687E-1,5.406157837E0,1.153110904E1
1.472909708E0,1.052566177E1,-4.246669006E-1,5.458997955E0,1.186467684E1
1.482976708E0,1.053913376E1,-5.462141418E-1,5.413642273E0,1.186082682E1
1.493042708E0,1.009710297E1,-5.387297058E-1,5.300477600E0,1.141651351E1
1.503109708E0,9.374854889E0,-4.694238281E-1,5.128185883E0,1.069609991E1
1.513175708E0,9.389374695E0,-1.992356873E-1,4.460873566E0,1.039708829E1
1.523242708E0,9.958191833E0,-5.673202515E-2,4.628075867E0,1.098125172E1
1.533308708E0,1.050380722E1,-1.228944397E-1,4.912783813E0,1.159657337E1
1.543375708E0,1.077594131E1,-3.411405945E-1,4.969216461E0,1.187141105E1
1.553441708E0,1.081486038E1,-7.229965210E-1,4.853656769E0,1.187610682E1
1.563508708E0,1.082623672E1,-1.279838562E0,4.702171783E0,1.187248112E1
1.573574708E0,1.092308533E1,-1.783391418E0,4.588707733E0,1.198125689E1
1.583641708E0,1.109417953E1,-2.220632172E0,4.496349792E0,1.217494100E1
1.593707708E0,1.138876694E1,-2.517464905E0,4.414619751E0,1.247118717E1
1.603774708E0,1.176044403E1,-2.561024323E0,4.421954498E0,1.282265850E1
1.613840708E0,1.211924789E1,-2.571203156E0,4.466711426E0,1.316961526E1
1.623907708E0,1.247221390E1,-2.715353394E0,4.490212555E0,1.353112236E1
1.633973708E0,1.258328293E1,-2.878963165E0,4.449497223E0,1.365377104E1
1.644040708E0,1.233420090E1,-2.907553711E0,4.336781616E0,1.339380660E1
1.654106708E0,1.174263107E1,-2.822081451E0,4.195176086E0,1.278487507E1
1.664173708E0,1.113249985E1,-2.746338959E0,4.081262970E0,1.217093414E1
1.674239708E0,1.060724213E1,-2.736309814E0,4.004772034E0,1.166358332E1
1.684306708E0,1.016775604E1,-2.732118530E0,3.938459930E0,1.124096087E1
1.694372708E0,9.850415955E0,-2.715203705E0,3.926335144E0,1.094619264E1
1.704439708E0,9.616452484E0,-2.582130432E0,3.978127441E0,1.072236233E1
1.714505708E0,9.509874115E0,-2.448009338E0,3.999532928E0,1.060314666E1
1.724572708E0,9.519304504E0,-2.348915405E0,4.055217133E0,1.061034155E1
1.734638708E0,9.649683380E0,-2.322270813E0,4.115990753E0,1.074479925E1
1.744705708E0,9.762099609E0,-2.386187897E0,4.130959625E0,1.086541803E1
1.754771708E0,9.886041870E0,-2.585872650E0,4.162993011E0,1.103408682E1
1.764838708E0,1.003004242E1,-2.845582581E0,4.218677216E0,1.124705866E1
1.774905708E0,1.013093262E1,-3.046015778E0,4.243076477E0,1.139814484E1
1.784971708E0,1.017329453E1,-3.161874847E0,4.218976593E0,1.145832176E1
1.795038708E0,1.020413040E1,-3.281476135E0,4.218826904E0,1.151915202E1
1.805104708E0,1.022942780E1,-3.380719757E0,4.250261536E0,1.158167441E1
1.815171708E0,1.015009277E1,-3.447331238E0,4.351151733E0,1.156896700E1
1.825237708E0,9.985435181E0,-3.415297852E0,4.482279053E0,1.146577519E1
1.835304708E0,9.809700623E0,-3.377875671E0,4.681365051E0,1.138224271E1
1.845370708E0,9.617649994E0,-3.236868896E0,4.828509064E0,1.123792736E1
1.855437708E0,9.495953064E0,-3.112028503E0,4.948709106E0,1.115112406E1
1.865503708E0,9.406888275E0,-3.070415039E0,5.043611755E0,1.110653029E1
1.875570708E0,9.179062042E0,-3.093616791E0,5.090015259E0,1.094229867E1
1.885636708E0,8.911268921E0,-3.108735352E0,5.045108643E0,1.070177885E1
1.895703708E0,8.621321869E0,-3.019221497E0,4.842130737E0,1.033871942E1
1.905769708E0,8.299640808E0,-2.890040131E0,4.491709442E0,9.869742814E0
1.915836708E0,8.094716949E0,-2.765199738E0,4.045936432E0,9.462577540E0
1.925902708E0,7.917635193E0,-2.674338684E0,3.670666809E0,9.127695726E0
1.935969708E0,7.726931763E0,-2.587519226E0,3.410807190E0,8.833704540E0
1.946035708E0,7.546856232E0,-2.442919922E0,3.337609406E0,8.605959172E0
1.956102708E0,7.413782959E0,-2.255659332E0,3.366050262E0,8.448814778E0
1.966168708E0,7.389383698E0,-2.207160187E0,3.362607422E0,8.413184664E0
1.976235708E0,7.371421051E0,-2.258952484E0,3.334465942E0,8.399962962E0
1.986301708E0,7.373965759E0,-2.314487000E0,3.275638275E0,8.394166260E0
1.996368708E0,7.375312958E0,-2.361938324E0,3.131188660E0,8.353342822E0
2.006434708E0,7.360793152E0,-2.424807587E0,2.998265076E0,8.309666727E0
2.016501708E0,7.349267120E0,-2.467768250E0,2.884351959E0,8.271704393E0
2.026567708E0,7.285050659E0,-2.492766266E0,2.812950439E0,8.197471375E0
2.036634708E0,7.229665833E0,-2.544558563E0,2.772384796E0,8.150396542E0
2.046700708E0,7.182513885E0,-2.527494049E0,2.727478180E0,8.088007734E0
2.056767708E0,7.231911163E0,-2.451003113E0,2.660717010E0,8.086245751E0
2.066833708E0,7.366631012E0,-2.337239685E0,2.631677399E0,8.164292238E0
2.076900708E0,7.405999146E0,-2.207160187E0,2.626737671E0,8.162115548E0
2.086966708E0,7.330256653E0,-2.101629639E0,2.598596191E0,8.056190905E0
2.097033708E0,7.261848907E0,-2.037113800E0,2.573598175E0,7.969171209E0
2.107099708E0,7.208559723E0,-2.030826874E0,2.568508759E0,7.917375090E0
2.117166708E0,7.127578125E0,-2.068548431E0,2.555485840E0,7.849316557E0
2.127232708E0,7.040459290E0,-2.148482208E0,2.550845490E0,7.790433590E0
2.137299708E0,7.046895905E0,-2.280657349E0,2.616109772E0,7.855200199E0
2.147365708E0,7.097490692E0,-2.441423035E0,2.742896118E0,7.991145079E0
2.157432708E0,7.056925049E0,-2.539169769E0,2.907853088E0,8.043828929E0
2.167498708E0,7.054679718E0,-2.595003662E0,3.031046906E0,8.104924137E0
2.177565708E0,7.201224976E0,-2.647095337E0,3.159330139E0,8.297356314E0
2.187631708E0,7.385791168E0,-2.689906311E0,3.286864929E0,8.519917148E0
2.197698708E0,7.660619659E0,-2.718347168E0,3.355122986E0,8.793824830E0
2.207764708E0,7.949967957E0,-2.751278687E0,3.390449524E0,9.070097734E0
2.217831708E0,8.278534698E0,-2.891836395E0,3.385060730E0,9.399760137E0
2.227897708E0,8.745264130E0,-3.114423523E0,3.445834351E0,9.902174153E0
2.237964708E0,9.230704651E0,-3.355721741E0,3.510200500E0,1.043016224E1
2.248030708E0,9.627679138E0,-3.536994781E0,3.582350464E0,1.086442693E1
2.258097708E0,9.929601288E0,-3.670816498E0,3.686084747E0,1.120977682E1
2.268163708E0,1.025292892E1,-3.797303467E0,3.725901947E0,1.155094847E1
2.278230708E0,1.070738388E1,-3.957769775E0,3.726800079E0,1.200837416E1
2.288296708E0,1.118144806E1,-4.179608459E0,3.668870544E0,1.248817515E1
2.298363708E0,1.159922928E1,-4.402045898E0,3.570525055E0,1.291002622E1
2.308429708E0,1.177720917E1,-4.611909485E0,3.468886414E0,1.311508817E1
2.318496708E0,1.173155411E1,-4.717440033E0,3.415297852E0,1.309762809E1
2.328563708E0,1.153591095E1,-4.712649994E0,3.434158630E0,1.292593350E1
2.338629708E0,1.114956436E1,-4.546345825E0,3.441643066E0,1.252305685E1
2.348696708E0,1.065813629E1,-4.230652313E0,3.477568359E0,1.198281144E1
2.358762708E0,1.008497818E1,-3.782933350E0,3.551065521E0,1.134140361E1
2.368829708E0,9.593400421E0,-3.203787689E0,3.662733307E0,1.075700713E1
2.378895708E0,9.103618927E0,-2.568808136E0,3.786825256E0,1.018894981E1
2.388962708E0,8.741671600E0,-2.020947418E0,3.889811096E0,9.779145218E0
2.399028708E0,8.519683228E0,-1.591340790E0,3.930526428E0,9.516638367E0
2.409095708E0,8.466394043E0,-1.316512299E0,3.971690826E0,9.443906011E0
2.419161708E0,8.572523346E0,-1.243763580E0,4.012256470E0,9.546376608E0
2.429228708E0,8.721763000E0,-1.342558136E0,4.045038300E0,9.707417114E0
2.439294708E0,8.918753357E0,-1.503922577E0,4.072880402E0,9.919390068E0
2.449361708E0,9.159901886E0,-1.757345581E0,4.089196472E0,1.018398713E1
2.459427708E0,9.365574188E0,-2.053130493E0,4.023483124E0,1.039796813E1
2.469494708E0,9.538314972E0,-2.315235443E0,3.930376740E0,1.057296690E1
2.479560708E0,9.652377777E0,-2.480791168E0,3.815116425E0,1.067135581E1
2.489627708E0,9.670490112E0,-2.573298798E0,3.665427704E0,1.065718565E1
2.499693708E0,9.648036804E0,-2.563119965E0,3.535647583E0,1.059032587E1
2.509760708E0,9.615105286E0,-2.459385681E0,3.416345673E0,1.049620147E1
2.519826708E0,9.596693573E0,-2.299368439E0,3.311413879E0,1.040908664E1
2.529893708E0,9.509425049E0,-2.100581818E0,3.304079132E0,1.028389749E1
2.539959708E0,9.367669830E0,-1.913770294E0,3.286266174E0,1.011015827E1
2.550026708E0,9.190737762E0,-1.792223053E0,3.299289093E0,9.928093100E0
2.560092708E0,9.026678925E0,-1.699865112E0,3.370690613E0,9.784274578E0
2.570159708E0,8.789721680E0,-1.659299469E0,3.437751160E0,9.582829174E0
2.580225708E0,8.471633148E0,-1.609752502E0,3.533701630E0,9.319169412E0
2.590292708E0,8.170010376E0,-1.549577637E0,3.614683228E0,9.067314665E0
2.600358708E0,7.853119354E0,-1.516047363E0,3.687881012E0,8.807403111E0
2.610425708E0,7.621999969E0,-1.475332031E0,3.801644440E0,8.644303823E0
2.620491708E0,7.440876617E0,-1.484163666E0,3.978726196E0,8.567359498E0
2.630558708E0,7.309300232E0,-1.454974365E0,4.079616394E0,8.496239769E0
2.640624708E0,7.247329102E0,-1.403481445E0,4.030219116E0,8.410481877E0
2.650691708E0,7.215894470E0,-1.304237823E0,3.953578491E0,8.330723389E0
2.660757708E0,7.238198090E0,-1.264720001E0,3.886368256E0,8.312333396E0
2.670824708E0,7.437733154E0,-1.303489380E0,3.785777435E0,8.446956246E0
2.680890708E0,7.799530792E0,-1.456022186E0,3.785328369E0,8.790983565E0
2.690957708E0,8.207881622E0,-1.635498962E0,3.792962494E0,9.188620248E0
2.701023708E0,8.487949219E0,-1.755249939E0,3.642675018E0,9.401875641E0
2.711090708E0,8.600814514E0,-1.744771729E0,3.402723999E0,9.412585686E0
2.721156708E0,8.551117859E0,-1.632505188E0,3.373385010E0,9.336295639E0
2.731223708E0,8.320297852E0,-1.484163666E0,3.498674469E0,9.147175584E0
2.741289708E0,8.126450958E0,-1.328188019E0,3.595972137E0,8.985226998E0
2.751356708E0,8.102351074E0,-1.182840271E0,3.631598053E0,8.957438722E0
2.761422708E0,8.206983490E0,-1.179247742E0,3.665128326E0,9.065228563E0
2.771489708E0,8.364006958E0,-1.257235565E0,3.770359497E0,9.260284250E0
2.781555708E0,8.456364899E0,-1.327439575E0,3.868555298E0,9.393504310E0
2.791622708E0,8.547225952E0,-1.342707825E0,3.923491058E0,9.500090413E0
2.801688708E0,8.549920349E0,-1.312770081E0,3.935615845E0,9.503345481E0
2.811755708E0,8.511600037E0,-1.281185760E0,3.926035767E0,9.460577624E0
2.821821708E0,8.501720581E0,-1.218765564E0,3.948040009E0,9.452600819E0
2.831888708E0,8.559350739E0,-1.174457703E0,4.014950867E0,9.526891750E0
2.841954708E0,8.735833740E0,-1.093027039E0,4.151167603E0,9.733534389E0
2.852021708E0,8.913963318E0,-1.035696259E0,4.373904419E0,9.983108165E0
2.862088708E0,8.920399933E0,-1.053658905E0,4.552483063E0,1.007019534E1
2.872154708E0,9.045539703E0,-1.158890076E0,4.555776215E0,1.019411162E1
2.882221708E0,9.252409515E0,-1.378333740E0,4.494553528E0,1.037824153E1
2.892287708E0,9.486672363E0,-1.723515930E0,4.409230957E0,1.060230057E1
2.902354708E0,9.594298553E0,-2.114203491E0,4.368665314E0,1.075200715E1
2.912420708E0,9.678872681E0,-2.456541595E0,4.352947998E0,1.089326991E1
2.922487708E0,9.845176849E0,-2.768343201E0,4.334536285E0,1.110762963E1
2.932553708E0,1.001073257E1,-3.033741302E0,4.365372162E0,1.133467366E1
2.942620708E0,1.010668304E1,-3.171454926E0,4.384682007E0,1.146423154E1
2.952686708E0,1.020413040E1,-3.048710175E0,4.358336792E0,1.150712869E1
2.962753708E0,1.035187317E1,-2.897973633E0,4.379742279E0,1.160782804E1
2.972819708E0,1.060619431E1,-2.918930054E0,4.576133881E0,1.191438255E1
2.982886708E0,1.096709381E1,-3.072211304E0,4.832850037E0,1.237222973E1
2.992952708E0,1.121931931E1,-3.176993408E0,4.979095917E0,1.267903028E1
3.003019708E0,1.130943192E1,-3.147205353E0,5.059927826E0,1.278323204E1
3.013085708E0,1.137963593E1,-3.081342316E0,5.062173157E0,1.283029155E1
3.023152708E0,1.150223099E1,-3.110681305E0,4.962480469E0,1.290751209E1
3.033218708E0,1.151255951E1,-3.153641968E0,4.901706848E0,1.290392243E1
3.043285708E0,1.127575195E1,-3.091371460E0,4.911137238E0,1.268142061E1
3.053351708E0,1.088431595E1,-2.884351959E0,4.876110077E0,1.227046329E1
3.063418708E0,1.047446823E1,-2.543959808E0,4.803511047E0,1.180084466E1
3.073484708E0,1.014111145E1,-2.121687927E0,4.682712250E0,1.136976232E1
3.083551708E0,1.000309845E1,-1.881587219E0,4.494852905E0,1.112681678E1
3.093617708E0,1.012389725E1,-1.819017334E0,4.316124573E0,1.115486669E1
3.103684708E0,1.009949799E1,-1.879790955E0,4.150868225E0,1.107985472E1
3.113750708E0,1.017568954E1,-2.079326019E0,3.951482849E0,1.111226670E1
3.123817708E0,1.027702881E1,-2.431693268E0,3.835623779E0,1.123576713E1
3.133883708E0,1.024694138E1,-2.826422424E0,3.688479767E0,1.125137122E1
3.143950708E0,1.019499939E1,-3.183430023E0,3.571123810E0,1.126166793E1
3.154016708E0,1.005818390E1,-3.486250305E0,3.536396027E0,1.121726800E1
3.164083708E0,9.763446808E0,-3.698059845E0,3.543281708E0,1.102521589E1
3.174149708E0,9.440867615E0,-3.719465332E0,3.509002991E0,1.073673627E1
3.184216708E0,9.146280212E0,-3.617677002E0,3.505260773E0,1.044168960E1
3.194282708E0,8.953780518E0,-3.461551666E0,3.583547974E0,1.024667466E1
3.204349708E0,8.784482574E0,-3.218307495E0,3.704197083E0,1.006209289E1
3.214415708E0,8.661887512E0,-3.010689240E0,3.745062103E0,9.905454817E0
3.224482708E0,8.513995056E0,-2.915038147E0,3.718118134E0,9.737040704E0
3.234548708E0,8.431516571E0,-2.884501648E0,3.684587860E0,9.642977193E0
3.244615708E0,8.351582794E0,-2.880010986E0,3.645070038E0,9.556669610E0
3.254681708E0,8.201145630E0,-2.858455811E0,3.556304626E0,9.384927376E0
3.264748708E0,8.050109711E0,-2.847827911E0,3.400328979E0,9.191116762E0
3.274815708E0,7.929011536E0,-2.828967133E0,3.225043488E0,9.015164140E0
3.284881708E0,7.982899475E0,-2.841241608E0,3.050356750E0,9.005776713E0
3.294948708E0,7.986941071E0,-2.870430908E0,2.875071259E0,8.960839023E0
3.305014708E0,7.986641693E0,-2.810256042E0,2.745440826E0,8.900642105E0
3.315081708E0,8.023764496E0,-2.730172577E0,2.675985260E0,8.887943300E0
3.325147708E0,7.904013519E0,-2.677482147E0,2.636467438E0,8.751759875E0
3.335214708E0,7.737409973E0,-2.549947357E0,2.540367279E0,8.533651653E0
3.345280708E0,7.629484406E0,-2.424208832E0,2.426005096E0,8.364886221E0
3.355347708E0,7.583529968E0,-2.359243927E0,2.358944550E0,8.284960958E0
3.365413708E0,7.595954132E0,-2.375709686E0,2.333796844E0,8.293920870E0
3.375480708E0,7.584128723E0,-2.418969727E0,2.386337585E0,8.310537293E0
3.385546708E0,7.494315491E0,-2.433788910E0,2.445913696E0,8.250490103E0
3.395613333E0,7.426656189E0,-2.421664124E0,2.463876343E0,8.190870888E0
3.405679333E0,7.427704010E0,-2.431393890E0,2.523901520E0,8.212949652E0
3.415746333E0,7.481591949E0,-2.463726654E0,2.532284088E0,8.273852176E0
3.425812333E0,7.546556854E0,-2.534529419E0,2.529889069E0,8.353125070E0
3.435879333E0,7.566914520E0,-2.566413116E0,2.564916229E0,8.391869095E0
3.445945333E0,7.616461487E0,-2.580334167E0,2.559078369E0,8.439045686E0
3.456012333E0,7.651488647E0,-2.588866425E0,2.537523193E0,8.466789937E0
3.466078333E0,7.623796234E0,-2.585722961E0,2.512525177E0,8.433327636E0
3.476145333E0,7.523355103E0,-2.552342377E0,2.513872375E0,8.332759323E0
3.486211333E0,7.437433777E0,-2.548300781E0,2.539469147E0,8.261849769E0
3.496278333E0,7.458390198E0,-2.608026581E0,2.623294830E0,8.325326585E0
3.506344333E0,7.454348602E0,-2.739902344E0,2.716251526E0,8.393592812E0
3.516411333E0,7.408693542E0,-2.858755188E0,2.806813202E0,8.422554338E0
3.526477333E0,7.446265411E0,-3.005450134E0,2.911146240E0,8.541333123E0
3.536544333E0,7.606582031E0,-3.181783447E0,3.063978424E0,8.796124140E0
3.546610333E0,7.780370636E0,-3.358116760E0,3.220852203E0,9.065594538E0
3.556677333E0,8.005352783E0,-3.507206726E0,3.345991974E0,9.358516682E0
3.566743333E0,8.364755402E0,-3.573369141E0,3.451821899E0,9.728986297E0
3.576810333E0,8.817713470E0,-3.657943268E0,3.504512329E0,1.016927856E1
3.586876333E0,9.298513641E0,-3.760330353E0,3.474424896E0,1.061480422E1
3.596943333E0,9.702822876E0,-3.761078796E0,3.400927734E0,1.094791281E1
3.607009333E0,9.908195801E0,-3.673660583E0,3.362607422E0,1.108942085E1
3.617076333E0,9.823621674E0,-3.507356415E0,3.297792206E0,1.093985947E1
3.627142333E0,9.777367859E0,-3.412902832E0,3.178939362E0,1.083284281E1
3.637209333E0,1.007509872E1,-3.542982330E0,3.087629242E0,1.111727451E1
3.647275333E0,1.055500076E1,-3.883673859E0,3.017724609E0,1.164463935E1
3.657342333E0,1.090242828E1,-4.232448578E0,2.947370911E0,1.206082745E1
3.667408333E0,1.103834564E1,-4.472549286E0,2.984344025E0,1.227823607E1
3.677475333E0,1.091395432E1,-4.522545319E0,3.043471069E0,1.219961192E1
3.687542333E0,1.055320450E1,-4.421804810E0,2.997516632E0,1.182825384E1
3.697608333E0,1.019230499E1,-4.219874725E0,2.829416199E0,1.138841604E1
3.707675333E0,9.832752686E0,-3.902834015E0,2.599494324E0,1.089369127E1
3.717741333E0,9.533524933E0,-3.430266724E0,2.418670349E0,1.041656343E1
3.727808333E0,9.203311615E0,-2.860102386E0,2.416874084E0,9.935915191E0
3.737874333E0,8.878786469E0,-2.326162720E0,2.528242493E0,9.520288454E0
3.747941333E0,8.700357513E0,-1.936972046E0,2.683469696E0,9.308549359E0
3.758007333E0,8.718469849E0,-1.695673828E0,2.883154449E0,9.338072917E0
3.768074333E0,8.834328918E0,-1.690434723E0,3.133583679E0,9.524824600E0
3.778140333E0,9.007219391E0,-1.849853210E0,3.415597229E0,9.809090808E0
3.788207333E0,9.294472046E0,-2.101479950E0,3.686234436E0,1.021722824E1
3.798273333E0,9.601333923E0,-2.483186188E0,3.939807129E0,1.067117177E1
3.808340333E0,9.785151672E0,-2.867736511E0,3.984713745E0,1.094765041E1
3.818406333E0,9.881551208E0,-3.128045197E0,3.884272614E0,1.106875308E1
3.828473333E0,9.899064789E0,-3.252137146E0,3.686384125E0,1.105247970E1
3.838539333E0,9.798923035E0,-3.241958313E0,3.475772095E0,1.089083000E1
3.848606333E0,9.674082642E0,-3.035537567E0,3.336561584E0,1.067403422E1
3.858672333E0,9.593400421E0,-2.714604950E0,3.347039795E0,1.051689531E1
3.868739333E0,9.510772247E0,-2.383792877E0,3.478765869E0,1.040380071E1
3.878805333E0,9.347761230E0,-2.059118042E0,3.639082489E0,1.024028947E1
3.888872333E0,9.135652313E0,-1.763782196E0,3.749702454E0,1.003151730E1
3.898938333E0,8.951684875E0,-1.553319855E0,3.887116699E0,9.882061572E0
3.909005333E0,8.672665100E0,-1.417103119E0,4.023483124E0,9.664973752E0
3.919071333E0,8.327033844E0,-1.264270935E0,4.144730988E0,9.387047917E0
3.929138333E0,7.990234222E0,-1.171164551E0,4.208199005E0,9.106283995E0
3.939204333E0,7.751630402E0,-1.135987701E0,4.207450562E0,8.892743231E0
3.949271333E0,7.595654755E0,-1.200204163E0,4.146377563E0,8.736527232E0
3.959337333E0,7.455845490E0,-1.341809692E0,4.032464447E0,8.582007617E0
3.969404333E0,7.338190155E0,-1.474583588E0,3.852987671E0,8.418369527E0
3.979470333E0,7.328011322E0,-1.588945770E0,3.628604279E0,8.330142112E0
3.989537333E0,7.390281830E0,-1.681154022E0,3.462599487E0,8.332595009E0
3.999603333E0,7.480544128E0,-1.707648926E0,3.323838043E0,8.361967750E0
4.009670333E0,7.609575806E0,-1.673220520E0,3.239114227E0,8.437841657E0
4.019737333E0,7.870932312E0,-1.637145538E0,3.157234497E0,8.637126295E0
4.029803333E0,8.066425781E0,-1.605561218E0,3.115770721E0,8.795059914E0
4.039870333E0,8.188122711E0,-1.524729309E0,3.099604340E0,8.886939859E0
4.049936333E0,8.302634583E0,-1.397942963E0,3.101400604E0,8.972550989E0
4.060003333E0,8.388406219E0,-1.319955139E0,3.147504730E0,9.056181673E0
4.070069333E0,8.455167389E0,-1.247056732E0,3.172951813E0,9.116612818E0
4.080136333E0,8.495882721E0,-1.144969025E0,3.210673370E0,9.154201263E0
4.090202333E0,8.579409027E0,-1.020727386E0,3.270099792E0,9.238056955E0
4.100269333E0,8.717721405E0,-9.470805359E-1,3.330424347E0,9.380157481E0
4.110335333E0,8.846453705E0,-8.822653198E-1,3.383863220E0,9.512553051E0
4.120402333E0,8.925489349E0,-8.171507263E-1,3.436403961E0,9.599008679E0
4.130468333E0,9.007369080E0,-7.614665222E-1,3.461102600E0,9.679450408E0
4.140535333E0,9.039851532E0,-7.249424744E-1,3.469485168E0,9.709880774E0
4.150601333E0,9.079519043E0,-6.855743408E-1,3.435655518E0,9.731978579E0
4.160668333E0,9.112600250E0,-6.390211487E-1,3.399281158E0,9.746945354E0
4.170734333E0,9.233548737E0,-6.222560120E-1,3.347339172E0,9.841255222E0
4.180801333E0,9.312434692E0,-6.509962463E-1,3.277584229E0,9.893826074E0
4.190867333E0,9.398206329E0,-7.917036438E-1,3.196303253E0,9.958384977E0
4.200934333E0,9.510323181E0,-9.955796814E-1,3.091072083E0,1.004948519E1
4.211000333E0,9.643995209E0,-1.277144165E0,3.039130096E0,1.019186207E1
4.221067333E0,9.772727509E0,-1.590742035E0,3.042572937E0,1.035827752E1
4.231133333E0,9.914931793E0,-1.900148621E0,3.139870605E0,1.057238027E1
4.241200333E0,1.013886612E1,-2.192939758E0,3.260968781E0,1.087379917E1
4.251266333E0,1.049018555E1,-2.518812103E0,3.379522247E0,1.130528982E1
4.261333333E0,1.091185867E1,-2.804118805E0,3.495680695E0,1.179625048E1
4.271399333E0,1.122785156E1,-2.959495697E0,3.572770386E0,1.214857826E1
4.281466333E0,1.139280853E1,-2.971620483E0,3.633394318E0,1.232185736E1
4.291532333E0,1.143951141E1,-2.901865540E0,3.630400543E0,1.234759301E1
4.301599333E0,1.133951935E1,-2.786605225E0,3.593876495E0,1.221743901E1
4.311665333E0,1.118668716E1,-2.724185028E0,3.457959137E0,1.202167356E1
4.321732333E0,1.115076187E1,-2.804567871E0,3.391197968E0,1.198771517E1
4.331798333E0,1.112920670E1,-3.047662354E0,3.427123260E0,1.203713676E1
4.341865333E0,1.099448685E1,-3.354224854E0,3.562741241E0,1.203422995E1
4.351932333E0,1.077908478E1,-3.557801514E0,3.729943542E0,1.194818392E1
4.361998333E0,1.046892975E1,-3.675157471E0,3.901187439E0,1.176114518E1
4.372065333E0,1.018631744E1,-3.752097473E0,4.031716003E0,1.157989777E1
4.382131333E0,9.908794556E0,-3.806284790E0,4.073179779E0,1.136938024E1
4.392198458E0,9.640552368E0,-3.804189148E0,4.117637329E0,1.115199723E1
4.402264458E0,9.427994385E0,-3.765719147E0,4.194577332E0,1.098463462E1
4.412331458E0,9.218130798E0,-3.685336304E0,4.255201263E0,1.080103592E1
4.422397458E0,9.007668457E0,-3.565585327E0,4.275708618E0,1.058929525E1
4.432464458E0,8.804241486E0,-3.342249756E0,4.302802277E0,1.035371474E1
4.442530458E0,8.625962219E0,-3.089575195E0,4.295317841E0,1.011940979E1
4.452597458E0,8.493487701E0,-2.810854797E0,4.265080719E0,9.911162977E0
4.462663458E0,8.472082214E0,-2.567460938E0,4.210743713E0,9.802978901E0
4.472730458E0,8.577912140E0,-2.405497742E0,4.218976593E0,9.857320100E0
4.482796458E0,8.766519928E0,-2.290237427E0,4.249363403E0,1.000770445E1
4.492863458E0,8.984317017E0,-2.243983612E0,4.307891693E0,1.021329259E1
4.502929458E0,9.178163910E0,-2.244732056E0,4.356690216E0,1.040472318E1
4.512996458E0,9.397457886E0,-2.304457855E0,4.400549011E0,1.062956125E1
4.523062458E0,9.601034546E0,-2.409389648E0,4.398004303E0,1.083178031E1
4.533129458E0,9.696685638E0,-2.547552338E0,4.377646637E0,1.093981377E1
4.543195458E0,9.691596222E0,-2.685415649E0,4.336482239E0,1.095187531E1
4.553262458E0,9.652976532E0,-2.766397247E0,4.292174377E0,1.092042447E1
4.563328458E0,9.626032562E0,-2.788251801E0,4.301604767E0,1.090589999E1
4.573395458E0,9.603728943E0,-2.762804718E0,4.299958191E0,1.087907808E1
4.583461458E0,9.579329681E0,-2.679428101E0,4.308939514E0,1.084019612E1
4.593528458E0,9.479487305E0,-2.555635529E0,4.317471771E0,1.072532121E1
4.603594458E0,9.382788391E0,-2.405497742E0,4.298610992E0,1.059722576E1
4.613661458E0,9.289682007E0,-2.262245636E0,4.287833405E0,1.047861930E1
4.623727458E0,9.145980835E0,-2.130669250E0,4.260140991E0,1.031200844E1
4.633794458E0,9.009165344E0,-2.030228119E0,4.202510834E0,1.014632858E1
4.643860458E0,8.875643005E0,-1.990111542E0,4.089495850E0,9.973041613E0
4.653927458E0,8.653504944E0,-2.012115784E0,3.945046234E0,9.720861460E0
4.663993458E0,8.397237854E0,-2.102378082E0,3.766766968E0,9.440451820E0
4.674060458E0,8.148904266E0,-2.215842133E0,3.587140503E0,9.175084418E0
4.684127458E0,7.971672821E0,-2.331252136E0,3.366199951E0,8.961785882E0
4.694193458E0,7.827372894E0,-2.473306732E0,3.174299011E0,8.801203715E0
4.704260458E0,7.677833862E0,-2.634222107E0,3.009192352E0,8.656991252E0
4.714326458E0,7.463778992E0,-2.765199738E0,3.038381653E0,8.519747032E0
4.724393458E0,7.313641205E0,-2.860551453E0,3.174897766E0,8.470659839E0
4.734459458E0,7.244335327E0,-2.923271027E0,3.282973022E0,8.473713454E0
4.744526458E0,7.236701202E0,-2.980452118E0,3.315006409E0,8.499541553E0
4.754592458E0,7.314539337E0,-3.069217529E0,3.261866913E0,8.576850104E0
4.764659458E0,7.402406616E0,-3.137924652E0,3.109483795E0,8.620387712E0
4.774725458E0,7.402855682E0,-3.114273834E0,2.910397797E0,8.542329255E0
4.784792458E0,7.323370972E0,-3.047512665E0,2.662662964E0,8.367130326E0
4.794858458E0,7.203919373E0,-2.983445892E0,2.401605835E0,8.158744653E0
4.804925458E0,7.147935791E0,-2.906356201E0,2.153122559E0,8.010981787E0
4.814991458E0,7.118746490E0,-2.819836121E0,1.964065704E0,7.904782188E0
4.825058458E0,7.067702637E0,-2.710413666E0,1.819466400E0,7.785192405E0
4.835124458E0,7.037166138E0,-2.613565063E0,1.720222778E0,7.701402210E0
4.845191458E0,7.032226410E0,-2.533631287E0,1.656904449E0,7.656162755E0
4.855257458E0,7.054679718E0,-2.495310974E0,1.708846436E0,7.675626289E0
4.865324458E0,7.107070770E0,-2.506387939E0,1.835932159E0,7.756486468E0
4.875390458E0,7.180867310E0,-2.508034515E0,2.054777069E0,7.878908633E0
4.885457458E0,7.332352295E0,-2.615361328E0,2.276466064E0,8.110844765E0
4.895523458E0,7.533833313E0,-2.848127289E0,2.517015839E0,8.438355419E0
4.905590458E0,7.824678497E0,-3.116519165E0,2.729124756E0,8.853609841E0
4.915656458E0,8.114775238E0,-3.406466217E0,2.871329041E0,9.257327893E0
4.925723458E0,8.458011475E0,-3.709286499E0,2.980302429E0,9.704584845E0
4.935789458E0,8.806187439E0,-3.939807129E0,3.013832703E0,1.010713634E1
4.945856458E0,9.141639862E0,-4.125121765E0,3.004102936E0,1.046951973E1
4.955922458E0,9.418414307E0,-4.238436127E0,2.956352234E0,1.074294594E1
4.965989458E0,9.475146332E0,-4.234095154E0,2.945724335E0,1.078810695E1
4.976056458E0,9.508826294E0,-4.190984802E0,2.931054840E0,1.079690759E1
4.986122458E0,9.724976807E0,-4.117337952E0,2.915337524E0,1.095567609E1
4.996189458E0,1.027568161E1,-4.117637329E0,2.918780365E0,1.144831204E1
5.006255458E0,1.090197922E1,-4.315525818E0,2.933300171E0,1.208640409E1
5.016322458E0,1.133173553E1,-4.564158783E0,2.972069550E0,1.257270747E1
5.026388458E0,1.149205215E1,-4.760251007E0,3.021466827E0,1.280064507E1
5.036455458E0,1.151211044E1,-4.886139221E0,3.049907684E0,1.287264465E1
5.046521458E0,1.138786880E1,-4.984484711E0,3.055146790E0,1.280088144E1
5.056588458E0,1.106663681E1,-4.988975372E0,3.037184143E0,1.251338536E1
5.066654458E0,1.056308395E1,-4.806654510E0,2.970422974E0,1.197940244E1
5.076721458E0,1.002749771E1,-4.413422241E0,2.913990326E0,1.133668143E1
5.086787458E0,9.596693573E0,-3.864663391E0,2.877017212E0,1.073822046E1
5.096854458E0,9.188043365E0,-3.201093292E0,2.887495422E0,1.014912651E1
5.106920458E0,8.784183197E0,-2.538720703E0,2.880460052E0,9.586658822E0
5.116987458E0,8.511749725E0,-2.046693878E0,2.861000519E0,9.210003430E0
5.127053458E0,8.399782562E0,-1.723964996E0,2.886297913E0,9.047602889E0
5.137120458E0,8.433911591E0,-1.570234680E0,3.028053131E0,9.097560521E0
5.147186458E0,8.673862610E0,-1.618733826E0,3.264561310E0,9.408164131E0
5.157253458E0,8.997789001E0,-1.754800873E0,3.546275482E0,9.829323619E0
5.167319458E0,9.287885742E0,-1.962718506E0,3.759432220E0,1.021030931E1
5.177386458E0,9.523346100E0,-2.185455322E0,3.754642181E0,1.046745785E1
5.187452458E0,9.855804749E0,-2.403102722E0,3.585793304E0,1.075963306E1
5.197519458E0,9.981692963E0,-2.571951599E0,3.341950378E0,1.083594766E1
5.207585458E0,9.924811249E0,-2.604583740E0,3.071013794E0,1.071059571E1
5.217652458E0,9.788444824E0,-2.545905762E0,2.784359894E0,1.049037408E1
5.227718458E0,9.592053223E0,-2.436932373E0,2.562221832E0,1.022306731E1
5.237785458E0,9.389674072E0,-2.292782135E0,2.469265137E0,9.975976114E0
5.247852458E0,9.171577606E0,-2.153721313E0,2.499651947E0,9.747030888E0
5.257918458E0,8.915909271E0,-1.972597961E0,2.687960358E0,9.518913369E0
5.267985458E0,8.577014008E0,-1.754651184E0,2.925216980E0,9.230431433E0
5.278051458E0,8.195906525E0,-1.583856354E0,3.120261383E0,8.911650566E0
5.288118458E0,7.874225464E0,-1.455722809E0,3.206931152E0,8.625947077E0
5.298184458E0,7.660619659E0,-1.396895142E0,3.301983490E0,8.458102894E0
5.308251458E0,7.526199188E0,-1.375040588E0,3.407214661E0,8.375172988E0
5.318317458E0,7.393874359E0,-1.406175842E0,3.568579102E0,8.329553730E0
5.328384458E0,7.276518402E0,-1.413360901E0,3.619024200E0,8.248796594E0
5.338450458E0,7.350464630E0,-1.378184052E0,3.492986298E0,8.254070198E0
5.348517458E0,7.554640045E0,-1.307381287E0,3.300636292E0,8.347217019E0
5.358583458E0,7.824828186E0,-1.237027588E0,3.013233948E0,8.475715440E0
5.368650458E0,8.026608582E0,-1.181792450E0,2.771486664E0,8.573460039E0
5.378716458E0,8.235723724E0,-1.151854706E0,2.561922455E0,8.701572340E0
5.388787208E0,8.439599762E0,-1.195563812E0,2.511926422E0,8.886281074E0
5.398853208E0,8.515641632E0,-1.274898834E0,2.602338409E0,8.995203424E0
5.408920208E0,8.575217743E0,-1.269659729E0,2.670596466E0,9.070748627E0
5.418986208E0,8.695417786E0,-1.185534668E0,2.859803009E0,9.230073465E0
5.429053208E0,8.815168762E0,-1.039438477E0,3.218157806E0,9.441619158E0
5.439119208E0,8.884923706E0,-9.119036865E-1,3.472928009E0,9.583040569E0
5.449186208E0,8.910221100E0,-8.469387817E-1,3.304977264E0,9.541080655E0
5.459252208E0,8.983568573E0,-8.268804932E-1,2.997067566E0,9.506347861E0
5.469319208E0,8.982071686E0,-8.039781189E-1,2.785407715E0,9.438352013E0
5.479385208E0,8.901539154E0,-7.358697510E-1,2.675685883E0,9.324065559E0
5.489452208E0,8.831484833E0,-5.915698242E-1,2.677631836E0,9.247420800E0
5.499518208E0,8.785979462E0,-4.408332825E-1,2.772684174E0,9.223640638E0
5.509585208E0,8.750353546E0,-3.631448364E-1,2.956801300E0,9.243551010E0
5.519651208E0,8.783584442E0,-3.465293884E-1,3.135679321E0,9.332948252E0
5.529718208E0,8.859326935E0,-3.915856934E-1,3.277434540E0,9.454236630E0
5.539785208E0,8.978628845E0,-4.839436340E-1,3.335813141E0,9.590496686E0
5.549851208E0,9.096583557E0,-5.776487732E-1,3.357967072E0,9.713776473E0
5.559918208E0,9.237141266E0,-7.563771057E-1,3.353326721E0,9.856048153E0
5.569984208E0,9.407786407E0,-1.016835480E0,3.348237305E0,1.003748437E1
5.580051208E0,9.614207153E0,-1.322499847E0,3.347488861E0,1.026584954E1
5.590117208E0,9.908046112E0,-1.639091492E0,3.358266449E0,1.058933200E1
5.600184208E0,1.025906616E1,-2.005529480E0,3.432961121E0,1.100253648E1
5.610250208E0,1.062745010E1,-2.336790619E0,3.575165405E0,1.145360615E1
5.620317208E0,1.090332642E1,-2.602488098E0,3.709585876E0,1.180747639E1
5.630383208E0,1.107980942E1,-2.818638611E0,3.812272339E0,1.205156922E1
5.640450208E0,1.122321121E1,-2.909948730E0,3.922293549E0,1.223979813E1
5.650516208E0,1.143262573E1,-2.956052856E0,4.059558105E0,1.248692082E1
5.660583208E0,1.174742111E1,-3.052901459E0,4.194577332E0,1.284198540E1
5.670649208E0,1.203377563E1,-3.136427765E0,4.415517883E0,1.319642881E1
5.680716208E0,1.214634155E1,-3.131188660E0,4.589156799E0,1.335658323E1
5.690782208E0,1.201027451E1,-2.968776398E0,4.690645752E0,1.323111804E1
5.700849208E0,1.178619049E1,-2.749931488E0,4.742587738E0,1.299879025E1
5.710915208E0,1.155372391E1,-2.558778992E0,4.731959839E0,1.274469811E1
5.720982208E0,1.133712433E1,-2.360890503E0,4.635410614E0,1.247362111E1
5.731048208E0,1.111468689E1,-2.159858551E0,4.499642944E0,1.218392549E1
5.741115208E0,1.088266937E1,-1.907932434E0,4.384532318E0,1.188683400E1
5.751181208E0,1.062490540E1,-1.657054138E0,4.290078735E0,1.157753077E1
5.761248208E0,1.041114990E1,-1.445394287E0,4.208498383E0,1.132221999E1
5.771314208E0,1.027298721E1,-1.234782257E0,4.094884644E0,1.112775960E1
5.781381208E0,1.020442978E1,-1.122815094E0,3.980223083E0,1.101059838E1
5.791448208E0,1.020413040E1,-1.122515717E0,3.926035767E0,1.099081779E1
5.801514208E0,1.028077103E1,-1.293909302E0,3.913611603E0,1.107631753E1
5.811581208E0,1.038944504E1,-1.571282501E0,3.964954834E0,1.123077752E1
5.821647208E0,1.041743683E1,-1.940863953E0,4.072880402E0,1.135245778E1
5.831714208E0,1.036354889E1,-2.364183655E0,4.136647797E0,1.140633004E1
5.841780208E0,1.022104523E1,-2.774630127E0,4.164190521E0,1.138019422E1
5.851847208E0,1.004052063E1,-3.022065582E0,4.193379822E0,1.129289021E1
5.861913208E0,9.796827393E0,-3.107388153E0,4.179009705E0,1.109494525E1
5.871980208E0,9.582173767E0,-3.105891266E0,4.139342194E0,1.089030617E1
5.882046208E0,9.457333374E0,-3.071013794E0,4.146826630E0,1.077350692E1
5.892113208E0,9.361981659E0,-2.966381378E0,4.128863983E0,1.065333923E1
5.902179208E0,9.233698425E0,-2.826721802E0,4.139940948E0,1.050669567E1
5.912246208E0,9.122330017E0,-2.686164093E0,4.159250793E0,1.037939062E1
5.922312208E0,9.026080170E0,-2.574945374E0,4.183500366E0,1.027629029E1
5.932379208E0,8.906927948E0,-2.507585449E0,4.150718536E0,1.014148976E1
5.942445208E0,8.755442963E0,-2.455044708E0,4.081262970E0,9.967032328E0
5.952512208E0,8.563392334E0,-2.449955292E0,3.981719971E0,9.756437010E0
5.962578208E0,8.425529022E0,-2.446063385E0,3.885619812E0,9.595353392E0
5.972645208E0,8.307125244E0,-2.458337860E0,3.785028992E0,9.454004407E0
5.982711208E0,8.188571777E0,-2.506986694E0,3.704945526E0,9.330825869E0
5.992778208E0,8.079149323E0,-2.549647980E0,3.631598053E0,9.217475957E0
6.002844208E0,7.996371460E0,-2.550845490E0,3.547622681E0,9.112321105E0
6.012911208E0,7.971373444E0,-2.517464905E0,3.467389526E0,9.050039461E0
6.022977208E0,7.989934845E0,-2.499951324E0,3.345542908E0,9.015623816E0
6.033044208E0,8.040529633E0,-2.474204865E0,3.199746094E0,9.000565624E0
6.043110208E0,8.103847961E0,-2.480940857E0,3.030897217E0,9.000764260E0
6.053177208E0,8.106392670E0,-2.502046967E0,2.846331024E0,8.948488221E0
6.063244208E0,8.093519440E0,-2.505340118E0,2.699187012E0,8.891984961E0
6.073310208E0,8.119714966E0,-2.570903778E0,2.590962067E0,8.902381805E0
6.083377208E0,8.102650452E0,-2.657573547E0,2.504741364E0,8.887596458E0
6.093443208E0,8.056546326E0,-2.737207947E0,2.447859650E0,8.853940530E0
6.103510208E0,8.020171967E0,-2.833757172E0,2.418670349E0,8.843263218E0
6.113576208E0,7.985593872E0,-2.892285461E0,2.387535095E0,8.822434387E0
6.123643208E0,7.927065582E0,-2.976111145E0,2.363135834E0,8.790905372E0
6.133709208E0,7.884553986E0,-3.019221497E0,2.372566223E0,8.769889422E0
6.143776208E0,7.774832153E0,-3.064876556E0,2.397564240E0,8.694239334E0
6.153842208E0,7.635621643E0,-3.074007568E0,2.445464630E0,8.586765262E0
6.163909208E0,7.401658173E0,-3.065026245E0,2.469714203E0,8.383222401E0
6.173975208E0,7.226073303E0,-3.065924377E0,2.481539612E0,8.232500624E0
6.184042208E0,7.063810730E0,-3.044668579E0,2.515219574E0,8.092821405E0
6.194108208E0,6.881938934E0,-3.017275543E0,2.535726929E0,7.930633408E0
6.204175208E0,6.780300293E0,-2.976560211E0,2.593806152E0,7.846031679E0
6.214241208E0,6.759643250E0,-3.004701691E0,2.670147400E0,7.864521362E0
6.224308208E0,6.838828583E0,-3.110082550E0,2.713557129E0,7.987839642E0
6.234374208E0,7.028783569E0,-3.275039520E0,2.734064484E0,8.222213262E0
6.244441208E0,7.326215057E0,-3.496429138E0,2.723586273E0,8.562497648E0
6.254507208E0,7.738757172E0,-3.773502960E0,2.738854523E0,9.034877489E0
6.264574208E0,8.170010376E0,-4.108206940E0,2.791544952E0,9.561336571E0
6.274640208E0,8.499475250E0,-4.432582397E0,2.882256317E0,1.000980858E1
6.284707208E0,8.634943542E0,-4.690496063E0,2.911595306E0,1.024892143E1
6.294774208E0,8.610394592E0,-4.823868713E0,2.918780365E0,1.029212724E1
6.304840208E0,8.728798370E0,-4.874762878E0,2.921774139E0,1.041594922E1
6.314907208E0,9.194479980E0,-4.964875488E0,2.962938538E0,1.086128241E1
6.324973208E0,9.774074707E0,-5.127138062E0,3.019520874E0,1.144279631E1
6.335040208E0,9.839189301E0,-5.007686462E0,3.054098969E0,1.145487190E1
6.345106208E0,1.002644989E1,-5.167703705E0,3.133433990E0,1.170697517E1
6.355173208E0,1.051802765E1,-5.407804413E0,3.158731384E0,1.224135769E1
6.365239208E0,1.074480606E1,-5.314847717E0,3.225941620E0,1.241391006E1
6.375306208E0,1.068493057E1,-5.051545258E0,3.448229370E0,1.231162608E1
6.385372208E0,1.075872711E1,-5.144651642E0,3.480412445E0,1.242299965E1
6.395436250E0,1.085048630E1,-5.045557709E0,3.396586761E0,1.243895121E1
6.405502250E0,1.058329193E1,-4.442910919E0,3.373235321E0,1.196345444E1
6.415569250E0,9.868228912E0,-3.633544006E0,3.497177582E0,1.108218548E1
6.425635250E0,9.241332550E0,-2.943778381E0,3.573818207E0,1.033635502E1
6.435702250E0,9.019044800E0,-2.463726654E0,3.556454315E0,1.000307380E1
6.445768250E0,9.135652313E0,-2.198029175E0,3.494632874E0,1.002516505E1
6.455835250E0,9.507928162E0,-2.048190765E0,3.442990265E0,1.031745925E1
6.465901250E0,9.991572418E0,-2.004781036E0,3.400628357E0,1.074313453E1
6.475968250E0,1.041564056E1,-2.056872711E0,3.488495636E0,1.117523581E1
6.486034250E0,1.074854828E1,-2.130818939E0,3.612737274E0,1.153791793E1
6.496101250E0,1.097847015E1,-2.176923065E0,3.664679260E0,1.177691280E1
6.506167250E0,1.106723557E1,-2.249073029E0,3.661386108E0,1.187214306E1
6.516234250E0,1.102696930E1,-2.310295715E0,3.585942993E0,1.182330349E1
6.526301250E0,1.086500610E1,-2.339185638E0,3.465742950E0,1.164180060E1
6.536367250E0,1.064705933E1,-2.279310150E0,3.309617615E0,1.138018874E1
6.546434250E0,1.037776932E1,-2.182012482E0,3.156186676E0,1.106439284E1
6.556500250E0,1.004740631E1,-2.094444580E0,3.062481537E0,1.071054923E1
6.566567250E0,9.728868713E0,-1.997296600E0,3.100053406E0,1.040434579E1
6.576633250E0,9.428892517E0,-1.888772278E0,3.165467377E0,1.012381640E1
6.586700250E0,9.188642120E0,-1.792372742E0,3.295995941E0,9.925086060E0
6.596766250E0,8.894952850E0,-1.751058655E0,3.397933960E0,9.681546768E0
6.606833250E0,8.604556732E0,-1.708846436E0,3.439098358E0,9.422629687E0
6.616899250E0,8.335715790E0,-1.673819275E0,3.479664001E0,9.186614733E0
6.626966250E0,8.129594421E0,-1.661544800E0,3.465293884E0,8.992179840E0
6.637032250E0,7.887547760E0,-1.644779663E0,3.406765594E0,8.747843255E0
6.647099250E0,7.724387054E0,-1.586550751E0,3.275338898E0,8.538802231E0
6.657165250E0,7.647596741E0,-1.447639618E0,3.129991150E0,8.389174034E0
6.667232250E0,7.622748413E0,-1.321302338E0,2.978057098E0,8.289810451E0
6.677298250E0,7.649243317E0,-1.216520233E0,2.800526276E0,8.236127258E0
6.687365250E0,7.713010712E0,-1.106948090E0,2.640359344E0,8.227233179E0
6.697431250E0,7.795788574E0,-1.039588165E0,2.519859924E0,8.258617141E0
6.707498250E0,7.929759979E0,-1.034648438E0,2.453847198E0,8.364983968E0
6.717564250E0,8.049061890E0,-1.048719177E0,2.436333618E0,8.474841044E0
6.727631250E0,8.136330414E0,-1.080153809E0,2.471360779E0,8.571710970E0
6.737697250E0,8.222102051E0,-1.142274628E0,2.551893311E0,8.684463883E0
6.747764250E0,8.279283142E0,-1.241218872E0,2.642005920E0,8.778801109E0
6.757831250E0,8.245004425E0,-1.309925995E0,2.746189270E0,8.788490177E0
6.767897250E0,8.228538666E0,-1.293160858E0,2.832110596E0,8.797838599E0
6.777964250E0,8.293952637E0,-1.217568054E0,2.920426941E0,8.876993625E0
6.788030250E0,8.468040619E0,-1.147962799E0,3.010689240E0,9.060341065E0
6.798097250E0,8.622968445E0,-1.047821045E0,3.116369476E0,9.228503262E0
6.808163250E0,8.781189423E0,-9.584568787E-1,3.185825043E0,9.390282662E0
6.818230250E0,8.930129700E0,-8.681945801E-1,3.192710724E0,9.523359704E0
6.828296250E0,9.065448303E0,-8.035290527E-1,3.173999634E0,9.638583171E0
6.838363250E0,9.184750214E0,-7.770341492E-1,3.174299011E0,9.748825199E0
6.848429250E0,9.316775665E0,-7.893086243E-1,3.209326172E0,9.885600203E0
6.858496250E0,9.439520416E0,-7.921527100E-1,3.309617615E0,1.003422246E1
6.868562250E0,9.578581238E0,-7.899073792E-1,3.477268982E0,1.022079115E1
6.878629250E0,9.801916809E0,-8.175997925E-1,3.580254822E0,1.046729512E1
6.888695250E0,1.007734406E1,-8.890013123E-1,3.691323853E0,1.076889309E1
6.898762250E0,1.037896683E1,-9.789642334E-1,3.770359497E0,1.108588896E1
6.908828250E0,1.072938812E1,-1.174308014E0,3.842808838E0,1.145713527E1
6.918895250E0,1.110795090E1,-1.464554443E0,3.890409851E0,1.186030276E1
6.928961250E0,1.142529099E1,-1.824855194E0,3.955225067E0,1.222747627E1
6.939028250E0,1.159533737E1,-2.169887695E0,3.982019348E0,1.245057185E1
6.949094250E0,1.166284698E1,-2.408341827E0,4.014052734E0,1.256720850E1
6.959161250E0,1.171673492E1,-2.526895294E0,4.054468689E0,1.265329180E1
6.969227250E0,1.190549240E1,-2.656825104E0,4.145778809E0,1.288359231E1
6.979294250E0,1.226968506E1,-2.833757172E0,4.279301147E0,1.329991614E1
6.989361250E0,1.259944931E1,-3.037782898E0,4.377197571E0,1.367969687E1
6.999427250E0,1.274734177E1,-3.174897766E0,4.409979401E0,1.385722253E1
7.009494250E0,1.279000305E1,-3.235821075E0,4.426744537E0,1.391584648E1
7.019560250E0,1.262055542E1,-3.186872864E0,4.387675781E0,1.373631233E1
7.029627250E0,1.216565140E1,-3.044518890E0,4.251009979E0,1.324172402E1
7.039693250E0,1.155731644E1,-2.800825653E0,4.038751373E0,1.255896892E1
7.049760250E0,1.099044525E1,-2.480192413E0,3.900139618E0,1.192276521E1
7.059826250E0,1.046937881E1,-2.170785828E0,3.838617554E0,1.136024597E1
7.069893250E0,1.002555176E1,-1.894610138E0,3.830534363E0,1.089835901E1
7.079959250E0,9.679172058E0,-1.629661102E0,3.770359497E0,1.051464587E1
7.090026250E0,9.596394196E0,-1.443298645E0,3.652853851E0,1.036905173E1
7.100092250E0,9.790091400E0,-1.423839111E0,3.438798981E0,1.047370736E1
7.110159250E0,1.012793884E1,-1.628164215E0,3.185675354E0,1.074125651E1
7.120225250E0,1.046683411E1,-1.968855743E0,2.942431183E0,1.104938507E1
7.130292250E0,1.078147980E1,-2.338736572E0,2.832559662E0,1.139005661E1
7.140358250E0,1.102846619E1,-2.721790009E0,2.841840363E0,1.170945191E1
7.150425250E0,1.110914841E1,-3.102298737E0,2.880460052E0,1.188841814E1
7.160491250E0,1.107172623E1,-3.398832092E0,2.904709625E0,1.194037350E1
7.170558250E0,1.089688980E1,-3.514092407E0,2.933000793E0,1.181920245E1
7.180624250E0,1.068388275E1,-3.514990540E0,2.956052856E0,1.162921999E1
7.190691250E0,1.049332901E1,-3.428620148E0,2.979104919E0,1.143417929E1
7.200758250E0,1.031654663E1,-3.307971039E0,3.017574921E0,1.124631340E1
7.210824250E0,1.017060013E1,-3.204236755E0,3.129841461E0,1.111324200E1
7.220891250E0,1.002570145E1,-3.133134613E0,3.237916718E0,1.099160255E1
7.230957250E0,9.817334747E0,-3.065475311E0,3.340004425E0,1.081354845E1
7.241024250E0,9.601333923E0,-3.032992859E0,3.376378784E0,1.062000906E1
7.251090250E0,9.363029480E0,-3.047362976E0,3.394940186E0,1.041529457E1
7.261157250E0,9.132359161E0,-3.047662354E0,3.413800964E0,1.021480625E1
7.271223250E0,8.910520477E0,-3.034639435E0,3.399730225E0,1.000822548E1
7.281290250E0,8.708590393E0,-3.053649902E0,3.375480652E0,9.826402902E0
7.291356250E0,8.503217468E0,-3.059338074E0,3.361260223E0,9.641697312E0
7.301423250E0,8.298293610E0,-3.049159241E0,3.291804657E0,9.433717550E0
7.311489250E0,8.108338623E0,-3.013982391E0,3.216361542E0,9.228988387E0
7.321556250E0,7.914641418E0,-2.975512390E0,3.076851654E0,8.997901915E0
7.331622250E0,7.754773865E0,-2.942131805E0,2.881807251E0,8.780516516E0
7.341689250E0,7.708969116E0,-2.935096436E0,2.691253510E0,8.676741403E0
7.351755250E0,7.701185303E0,-2.970572662E0,2.547702026E0,8.638480342E0
7.361822250E0,7.721243591E0,-3.035537567E0,2.441572723E0,8.648315922E0
7.371888250E0,7.728129272E0,-3.078049164E0,2.355801086E0,8.645702254E0
7.381955250E0,7.687264252E0,-3.092119904E0,2.303110657E0,8.599974178E0
7.392020833E0,7.630681915E0,-3.122506714E0,2.198178864E0,8.532839210E0
7.402087833E0,7.539371796E0,-3.136876831E0,2.108215942E0,8.433664553E0
7.412153833E0,7.431895294E0,-3.122207336E0,2.035916290E0,8.314216828E0
7.422220833E0,7.383994904E0,-3.118764496E0,2.002535706E0,8.261974459E0
7.432287833E0,7.344177704E0,-3.094065857E0,2.000140686E0,8.216492709E0
7.442353833E0,7.297923889E0,-3.073708191E0,2.069296875E0,8.184703091E0
7.452420833E0,7.206314392E0,-3.037483521E0,2.166444855E0,8.114847908E0
7.462486833E0,7.100933533E0,-2.998115387E0,2.310894470E0,8.046874310E0
7.472553833E0,7.001689911E0,-3.004701691E0,2.501448212E0,8.019297788E0
7.482619833E0,6.914271698E0,-2.997666321E0,2.656376038E0,7.990587597E0
7.492686833E0,6.835236053E0,-2.992876282E0,2.820883942E0,7.977164067E0
7.502752833E0,6.777156830E0,-3.023861847E0,2.972368927E0,7.994283720E0
7.512819833E0,6.690487061E0,-3.063978424E0,3.078348541E0,7.976641563E0
7.522885833E0,6.632108459E0,-3.144960022E0,3.154240723E0,7.989046920E0
7.532952833E0,6.649322662E0,-3.231480103E0,3.208727417E0,8.059273364E0
7.543018833E0,6.737639008E0,-3.382965088E0,3.199297028E0,8.189977634E0
7.553085833E0,6.866071930E0,-3.631747742E0,3.108585663E0,8.366351668E0
7.563151833E0,7.062014465E0,-3.914958801E0,2.974464569E0,8.605021220E0
7.573218833E0,7.346123657E0,-4.218527527E0,2.848875732E0,8.937426935E0
7.583284833E0,7.729775848E0,-4.524940338E0,2.789000244E0,9.380993662E0
7.593351833E0,8.175399170E0,-4.749323730E0,2.869383087E0,9.880616721E0
7.603417833E0,8.607849884E0,-4.763095093E0,3.030897217E0,1.029409988E1
7.613484833E0,8.883576508E0,-4.564009094E0,3.179388428E0,1.048125094E1
7.623550833E0,9.113648071E0,-4.291575623E0,3.296744385E0,1.059927951E1
7.633617833E0,9.517807617E0,-4.143683167E0,3.457659760E0,1.094139767E1
7.643684833E0,1.005324417E1,-4.179608459E0,3.617826691E0,1.147281636E1
7.653750833E0,1.046878006E1,-4.339026947E0,3.738924866E0,1.193323384E1
7.663817833E0,1.061263092E1,-4.473297729E0,3.838018799E0,1.213955172E1
7.673883833E0,1.055799454E1,-4.408183136E0,3.896846466E0,1.208671749E1
7.683950833E0,1.048569489E1,-4.289330292E0,3.899091797E0,1.198127992E1
7.694016833E0,1.048524582E1,-4.159101105E0,3.764371948E0,1.189155154E1
7.704083833E0,1.047267197E1,-4.026776276E0,3.606300659E0,1.178546519E1
7.714149833E0,1.037732025E1,-3.725752258E0,3.464844818E0,1.155747183E1
7.724216833E0,1.021700363E1,-3.218008118E0,3.336411896E0,1.121937537E1
7.734282833E0,9.943672028E0,-2.619552612E0,3.223546600E0,1.077635940E1
7.744349833E0,9.692644043E0,-2.072739716E0,3.164269867E0,1.040462408E1
7.754415833E0,9.540260925E0,-1.562151489E0,3.199297028E0,1.018294639E1
7.764482833E0,9.514664154E0,-1.234931946E0,3.290756836E0,1.014312434E1
7.774548833E0,9.627828827E0,-1.092128906E0,3.383863220E0,1.026344795E1
7.784615833E0,9.837542725E0,-1.107247467E0,3.580853577E0,1.052738126E1
7.794681833E0,1.009665390E1,-1.263522491E0,3.731590118E0,1.083806597E1
7.804748833E0,1.030636780E1,-1.496138763E0,3.818409576E0,1.109233519E1
7.814814833E0,1.041219772E1,-1.728904724E0,3.830534363E0,1.122835547E1
7.824881833E0,1.043749512E1,-1.989213409E0,3.777843933E0,1.127698449E1
7.834948833E0,1.044423111E1,-2.196083221E0,3.629951477E0,1.127303387E1
7.845014833E0,1.040516235E1,-2.307002563E0,3.468287659E0,1.120797411E1
7.855081833E0,1.030487091E1,-2.351460114E0,3.317251740E0,1.107808143E1
7.865147833E0,1.015772690E1,-2.343825989E0,3.245550842E0,1.091817459E1
7.875214833E0,1.000040405E1,-2.304607544E0,3.270848236E0,1.077115339E1
7.885280833E0,9.805359650E0,-2.243833923E0,3.366499329E0,1.060722331E1
7.895347833E0,9.541308746E0,-2.148781586E0,3.500171356E0,1.038773481E1
7.905413833E0,9.244625702E0,-2.056423645E0,3.589086456E0,1.012785881E1
7.915480833E0,8.939410400E0,-1.989512787E0,3.664679260E0,9.864131666E0
7.925546833E0,8.639583893E0,-1.940115509E0,3.753294983E0,9.617363529E0
7.935613833E0,8.289012909E0,-1.860181732E0,3.854933624E0,9.328907992E0
7.945679833E0,7.970625000E0,-1.735940094E0,3.901786194E0,9.042581844E0
7.955746833E0,7.784561920E0,-1.620829468E0,3.886368256E0,8.850443530E0
7.965812833E0,7.750732269E0,-1.507814484E0,3.855981445E0,8.787260559E0
7.975879833E0,7.768545227E0,-1.438807983E0,3.763623505E0,8.751304202E0
7.985945833E0,7.846982117E0,-1.375938721E0,3.579506378E0,8.733911015E0
7.996012833E0,7.991132355E0,-1.355281677E0,3.306174774E0,8.753615046E0
8.006078833E0,8.182733917E0,-1.359622650E0,3.108585663E0,8.858273699E0
8.016145833E0,8.310119019E0,-1.368454285E0,3.313509521E0,9.050419359E0
8.026211833E0,8.326435089E0,-1.377136230E0,3.328927460E0,9.072363723E0
8.036278833E0,8.463549957E0,-1.389111328E0,3.115471344E0,9.125101087E0
8.046345833E0,8.533454590E0,-1.445843353E0,2.992127838E0,9.157681980E0
8.056411833E0,8.523425446E0,-1.442999268E0,2.929108887E0,9.127469917E0
8.066478833E0,8.558602295E0,-1.341959381E0,2.955903168E0,9.153572623E0
8.076544833E0,8.624764709E0,-1.150507507E0,3.053649902E0,9.221443029E0
8.086611833E0,8.684789886E0,-9.865983582E-1,3.110531616E0,9.277626778E0
8.096677833E0,8.774303741E0,-8.699908447E-1,3.172502747E0,9.370702423E0
8.106744833E0,8.820707245E0,-7.728428650E-1,3.223995667E0,9.423179424E0
8.116810833E0,8.883875885E0,-6.518943787E-1,3.325783997E0,9.508367694E0
8.126877833E0,8.943002930E0,-5.909710693E-1,3.422782288E0,9.593851510E0
8.136943833E0,8.995843048E0,-5.845344543E-1,3.541036377E0,9.685340020E0
8.147010833E0,8.966354370E0,-5.984555054E-1,3.614383850E0,9.685939825E0
8.157076833E0,8.912316742E0,-5.962101746E-1,3.667373657E0,9.655800631E0
8.167143833E0,8.857380981E0,-5.625302124E-1,3.673061829E0,9.605260084E0
8.177209833E0,8.769962769E0,-5.266049194E-1,3.638334045E0,9.509313031E0
8.187276833E0,8.762328644E0,-5.384303284E-1,3.538042603E0,9.464991069E0
8.197342833E0,8.821755066E0,-6.053411865E-1,3.406765594E0,9.476067339E0
8.207409833E0,8.894204407E0,-8.313711548E-1,3.290906525E0,9.519880030E0
8.217475833E0,9.051527252E0,-1.127006378E0,3.169808350E0,9.656499052E0
8.227542833E0,9.251810760E0,-1.473984833E0,3.127296753E0,9.876670422E0
8.237609833E0,9.434131622E0,-1.784588928E0,3.173999634E0,1.011246116E1
8.247675833E0,9.727521515E0,-2.067051544E0,3.265160065E0,1.046702666E1
8.257742833E0,1.003438339E1,-2.404749298E0,3.411855011E0,1.086795399E1
8.267808833E0,1.025412643E1,-2.726130981E0,3.584595795E0,1.119947437E1
8.277875833E0,1.044138702E1,-2.959795074E0,3.786076813E0,1.149423018E1
8.287941833E0,1.053763687E1,-3.101849670E0,3.987108765E0,1.168590170E1
8.298008833E0,1.069196594E1,-3.185375977E0,4.150718536E0,1.190349613E1
8.308074833E0,1.110839996E1,-3.360362091E0,4.340224457E0,1.239056623E1
8.318141833E0,1.153845566E1,-3.662733307E0,4.535418549E0,1.292755180E1
8.328207833E0,1.173544601E1,-3.896996155E0,4.670437775E0,1.321817919E1
8.338274833E0,1.180669785E1,-3.943998413E0,4.797074432E0,1.334035834E1
8.348340833E0,1.186238205E1,-3.938310242E0,5.014572144E0,1.346745445E1
8.358407833E0,1.190189987E1,-3.953428802E0,5.315446472E0,1.362126246E1
8.368473833E0,1.188318878E1,-3.936663666E0,5.505850525E0,1.367559456E1
8.378540833E0,1.175280991E1,-3.762276306E0,5.586233368E0,1.354582101E1
8.388606833E0,1.153246811E1,-3.491788788E0,5.524860992E0,1.325573456E1
8.398673958E0,1.134236343E1,-3.168461151E0,5.407205658E0,1.295863524E1
8.408739958E0,1.116902390E1,-2.863096161E0,5.229974213E0,1.266084692E1
8.418806958E0,1.097203354E1,-2.591111755E0,4.995411987E0,1.233099838E1
8.428873958E0,1.066367477E1,-2.418071594E0,4.701273651E0,1.190222684E1
8.438939958E0,1.040875488E1,-2.341281281E0,4.390070801E0,1.153674555E1
8.449006958E0,1.020892044E1,-2.416574707E0,4.112547913E0,1.126831577E1
8.459072958E0,1.000519409E1,-2.613115997E0,3.924987946E0,1.106064259E1
8.469139958E0,9.836195526E0,-2.859952698E0,3.847598877E0,1.094230730E1
8.479205958E0,9.770931244E0,-3.101101227E0,3.841311951E0,1.094731034E1
8.489272958E0,9.796977081E0,-3.366798706E0,3.791315918E0,1.103132675E1
8.499338958E0,9.854307861E0,-3.605103149E0,3.681743774E0,1.112022434E1
8.509405958E0,9.800419922E0,-3.742517395E0,3.535497894E0,1.107042964E1
8.519471958E0,9.649683380E0,-3.860172729E0,3.245700531E0,1.088815387E1
8.529538958E0,9.519304504E0,-3.928879852E0,2.961741028E0,1.071565047E1
8.539604958E0,9.339678040E0,-3.955823822E0,2.824626160E0,1.052884803E1
8.549671958E0,9.174870758E0,-3.938310242E0,2.823728027E0,1.037602915E1
8.559737958E0,8.979377289E0,-3.955374756E0,2.835403748E0,1.021340885E1
8.569804958E0,8.757388916E0,-3.971541138E0,2.809058533E0,1.001777468E1
8.579870958E0,8.501271515E0,-3.932173004E0,2.769091644E0,9.767367631E0
8.589937958E0,8.243058472E0,-3.811374207E0,2.766546936E0,9.493596171E0
8.600003958E0,7.980504456E0,-3.653003540E0,2.750979309E0,9.197867872E0
8.610070958E0,7.757917328E0,-3.442241821E0,2.728975067E0,8.915246207E0
8.620137958E0,7.600295105E0,-3.182980957E0,2.703977051E0,8.672216865E0
8.630203958E0,7.526498566E0,-2.982248383E0,2.681224365E0,8.528244261E0
8.640270958E0,7.373217316E0,-2.783910828E0,2.611918488E0,8.302807433E0
8.650336958E0,7.274722137E0,-2.622845764E0,2.610571289E0,8.161861585E0
8.660403958E0,7.217241669E0,-2.515968018E0,2.637964325E0,8.085637152E0
8.670469958E0,7.182364197E0,-2.432142334E0,2.688259735E0,8.045396957E0
8.680536958E0,7.165898438E0,-2.418520660E0,2.740351410E0,8.044182274E0
8.690602958E0,7.168443146E0,-2.446811829E0,2.737507324E0,8.054030768E0
8.700669958E0,7.171885986E0,-2.518512726E0,2.746338959E0,8.082155197E0
8.710735958E0,7.170389099E0,-2.605332184E0,2.683469696E0,8.087227289E0
8.720802958E0,7.186555481E0,-2.699785767E0,2.531685333E0,8.083616362E0
8.730868958E0,7.271728363E0,-2.754422150E0,2.441123657E0,8.150089538E0
8.740935958E0,7.307503967E0,-2.771786041E0,2.333347778E0,8.156403861E0
8.751001958E0,7.397017822E0,-2.775079193E0,2.238295441E0,8.211388657E0
8.761068958E0,7.489076385E0,-2.761008453E0,2.192490692E0,8.277466292E0
8.771134958E0,7.554939423E0,-2.754571838E0,2.182162170E0,8.332263044E0
8.781201958E0,7.658074951E0,-2.744393005E0,2.162253571E0,8.417431047E0
8.791267958E0,7.716303864E0,-2.740950165E0,2.127825165E0,8.460602405E0
8.801334958E0,7.685467987E0,-2.698588257E0,2.153571625E0,8.425358598E0
8.811401958E0,7.652985535E0,-2.628533936E0,2.154020691E0,8.373600383E0
8.821467958E0,7.653434601E0,-2.560275879E0,2.213147736E0,8.368279194E0
8.831534958E0,7.642357635E0,-2.543211365E0,2.354603577E0,8.391526219E0
8.841600958E0,7.642207947E0,-2.551444244E0,2.501897278E0,8.436391410E0
8.851667958E0,7.697742462E0,-2.576741638E0,2.643353119E0,8.537104439E0
8.861733958E0,7.754624176E0,-2.641706543E0,2.737058258E0,8.637377928E0
8.871800958E0,7.777227173E0,-2.778072968E0,2.841690674E0,8.733736760E0
8.881866958E0,7.890691223E0,-2.964285736E0,2.877017212E0,8.906583292E0
8.891933958E0,8.073012085E0,-3.239114227E0,2.920876007E0,9.175886973E0
8.901999958E0,8.331823883E0,-3.559597778E0,2.973716125E0,9.535880303E0
8.912066958E0,8.709189148E0,-3.883075104E0,3.009042664E0,9.999129243E0
8.922132958E0,9.122779083E0,-4.189637604E0,3.055146790E0,1.049343049E1
8.932199958E0,9.573342133E0,-4.496200104E0,3.114573212E0,1.102566376E1
8.942265958E0,9.814041595E0,-4.752467194E0,3.230432281E0,1.137264479E1
8.952332958E0,9.855205994E0,-4.886288910E0,3.310515747E0,1.148740262E1
8.962398958E0,9.863738251E0,-4.823419647E0,3.374582520E0,1.148679749E1
8.972465958E0,9.928852844E0,-4.683161316E0,3.430416412E0,1.150138581E1
8.982532958E0,1.025337799E1,-4.684508514E0,3.495980072E0,1.180246825E1
8.992598958E0,1.082893112E1,-4.825814667E0,3.481759644E0,1.235624889E1
9.002665958E0,1.130718658E1,-5.026098175E0,3.450474701E0,1.284600743E1
9.012731958E0,1.135628448E1,-5.123545532E0,3.447031860E0,1.292663702E1
9.022798958E0,1.105855362E1,-5.051694946E0,3.389701080E0,1.262146202E1
9.032864958E0,1.067160828E1,-4.841382294E0,3.247047729E0,1.215999690E1
9.042931958E0,1.028586044E1,-4.589605865E0,3.104394379E0,1.168335018E1
9.052997958E0,9.896370392E0,-4.265080719E0,2.982248383E0,1.118136243E1
9.063064958E0,9.552385712E0,-3.768263855E0,2.872227173E0,1.066290646E1
9.073130958E0,9.301956482E0,-3.134332123E0,2.859803009E0,1.022393787E1
9.083197958E0,8.986113281E0,-2.506238251E0,2.903362427E0,9.770413269E0
9.093263958E0,8.656049652E0,-1.984423370E0,2.895129547E0,9.340605269E0
9.103330958E0,8.411009216E0,-1.597028961E0,2.875670013E0,9.031337418E0
9.113396958E0,8.306227112E0,-1.386716309E0,2.872526550E0,8.897628883E0
9.123463958E0,8.271649017E0,-1.370699615E0,2.913391571E0,8.876195432E0
9.133529958E0,8.450826416E0,-1.564995575E0,3.010240173E0,9.106438610E0
9.143596958E0,8.759035492E0,-1.875150604E0,3.121758270E0,9.485898336E0
9.153662958E0,9.073830872E0,-2.293979645E0,3.170556793E0,9.881759948E0
9.163729958E0,9.360933838E0,-2.670147400E0,3.174748077E0,1.023893524E1
9.173796958E0,9.676028595E0,-2.966680756E0,3.146606598E0,1.059848372E1
9.183862958E0,9.843380585E0,-3.150947571E0,3.167413330E0,1.080986212E1
9.193929958E0,9.934690704E0,-3.193159790E0,3.168910217E0,1.090579391E1
9.203995958E0,1.004770569E1,-3.121159515E0,3.151995392E0,1.098331012E1
9.214062958E0,1.016401382E1,-2.946023712E0,3.172053680E0,1.104754078E1
9.224128958E0,1.011446686E1,-2.719394989E0,3.248245239E0,1.096579437E1
9.234195958E0,9.941576385E0,-2.479743347E0,3.350183258E0,1.077997198E1
9.244261958E0,9.776170349E0,-2.248623962E0,3.452420654E0,1.060891252E1
9.254328958E0,9.547595673E0,-2.055375824E0,3.552712097E0,1.039244515E1
9.264394958E0,9.277557220E0,-1.902843018E0,3.661236420E0,1.015374471E1
9.274461958E0,8.980574799E0,-1.758842468E0,3.808380432E0,9.912013522E0
9.284527958E0,8.709189148E0,-1.605710907E0,3.862268372E0,9.661542325E0
9.294594958E0,8.476872253E0,-1.501826935E0,3.899989929E0,9.451072362E0
9.304660958E0,8.321046295E0,-1.438807983E0,3.919299774E0,9.309720220E0
9.314727958E0,8.184230804E0,-1.406026154E0,3.887715454E0,9.169126177E0
9.324793958E0,8.025261383E0,-1.356329498E0,3.700305176E0,8.940733100E0
9.334860958E0,7.932753754E0,-1.328038330E0,3.410807190E0,8.736468028E0
9.344927958E0,7.859855347E0,-1.299597473E0,3.088826752E0,8.544421008E0
9.354993958E0,7.739804993E0,-1.238674164E0,2.818039856E0,8.329480394E0
9.365060958E0,7.684719543E0,-1.170266418E0,2.621648254E0,8.203503978E0
9.375126958E0,7.740403748E0,-1.108744354E0,2.488125916E0,8.205725732E0
9.385193958E0,7.812254333E0,-1.105301514E0,2.389930115E0,8.244075155E0
9.395260000E0,7.813152466E0,-1.097817078E0,2.328557739E0,8.226343959E0
9.405327000E0,7.897127838E0,-1.087638245E0,2.279010773E0,8.291047892E0
9.415393000E0,7.943980408E0,-1.112336884E0,2.277064819E0,8.338413653E0
9.425460000E0,7.983348541E0,-1.143921204E0,2.286794586E0,8.382830019E0
9.435526000E0,8.008196869E0,-1.146316223E0,2.326162720E0,8.417617892E0
9.445593000E0,8.078550568E0,-1.126557312E0,2.447709961E0,8.516066856E0
9.455659000E0,8.181386719E0,-1.130898285E0,2.635868683E0,8.669591875E0
9.465726000E0,8.315208435E0,-1.198407898E0,2.932851105E0,8.898341891E0
9.475792000E0,8.432414703E0,-1.298849030E0,3.215912476E0,9.117824279E0
9.485859000E0,8.544681244E0,-1.361418915E0,3.456013184E0,9.317138302E0
9.495925000E0,8.725804596E0,-1.412762146E0,3.621568909E0,9.552555893E0
9.505992000E0,8.888216858E0,-1.461111603E0,3.692970428E0,9.735156733E0
9.516059000E0,9.044641571E0,-1.496438141E0,3.729344788E0,9.897114772E0
9.526125000E0,9.190139008E0,-1.454225922E0,3.709136810E0,1.001654251E1
9.536192000E0,9.303004303E0,-1.356928253E0,3.569177856E0,1.005615105E1
9.546258000E0,9.433083801E0,-1.285526733E0,3.404969330E0,1.011085877E1
9.556325000E0,9.649683380E0,-1.277443542E0,3.214565277E0,1.025093563E1
9.566391000E0,9.853858795E0,-1.360969849E0,3.097209320E0,1.041842011E1
9.576458000E0,9.993518372E0,-1.512754211E0,3.054997101E0,1.055896974E1
9.586524000E0,1.011716125E1,-1.767524414E0,3.071762238E0,1.071992620E1
9.596591000E0,1.021730301E1,-2.110910339E0,3.115471344E0,1.088831415E1
9.606657000E0,1.034079620E1,-2.499651947E0,3.223546600E0,1.111627540E1
9.616724000E0,1.040561142E1,-2.835703125E0,3.344794464E0,1.129183826E1
9.626790000E0,1.044557831E1,-3.102598114E0,3.480262756E0,1.143890074E1
9.636857000E0,1.046668442E1,-3.306773529E0,3.612437897E0,1.155577524E1
9.646923000E0,1.044932053E1,-3.419938202E0,3.732488251E0,1.161101827E1
9.656990000E0,1.050485504E1,-3.457360382E0,3.836970978E0,1.170588171E1
9.667056000E0,1.076501404E1,-3.539389801E0,3.968098297E0,1.200660699E1
9.677123000E0,1.119492004E1,-3.704047394E0,4.108356628E0,1.248698507E1
9.687189000E0,1.150806885E1,-3.840713196E0,4.237687683E0,1.285086469E1
9.697256000E0,1.159683426E1,-3.874093781E0,4.380341034E0,1.298778484E1
9.707323000E0,1.153606064E1,-3.778742065E0,4.483476562E0,1.294067806E1
9.717389000E0,1.138367752E1,-3.609593811E0,4.565805359E0,1.278529859E1
9.727456000E0,1.116722763E1,-3.382066956E0,4.566104736E0,1.252975109E1
9.737522000E0,1.084345093E1,-3.132984924E0,4.517006836E0,1.215727656E1
9.747589000E0,1.046967819E1,-2.799628143E0,4.509073334E0,1.173813535E1
9.757655000E0,1.008033783E1,-2.455493774E0,4.545597382E0,1.132718482E1
9.767722000E0,9.749825134E0,-2.116299133E0,4.571643219E0,1.097441269E1
9.777788000E0,9.504036255E0,-1.832339630E0,4.585264893E0,1.071022072E1
9.787855000E0,9.424401855E0,-1.647324371E0,4.527335358E0,1.058441275E1
9.797921000E0,9.494605865E0,-1.601369934E0,4.414020996E0,1.059223808E1
9.807988000E0,9.677375793E0,-1.741628265E0,4.258045349E0,1.071521448E1
9.818054000E0,9.806856537E0,-2.059267731E0,4.006717987E0,1.079207152E1
9.828121000E0,9.887688446E0,-2.490371246E0,3.753145294E0,1.086528561E1
9.838187000E0,9.962383118E0,-2.936144257E0,3.586092682E0,1.098772411E1
9.848254000E0,9.993368683E0,-3.306324463E0,3.547173615E0,1.110772883E1
9.858320000E0,9.863289185E0,-3.567531281E0,3.597618713E0,1.108849013E1
9.868387000E0,9.613907776E0,-3.711531830E0,3.573069763E0,1.090731492E1
9.878453000E0,9.386380920E0,-3.792064362E0,3.586691437E0,1.074003046E1
9.888520000E0,9.139394531E0,-3.764521637E0,3.612288208E0,1.052372470E1
9.898587000E0,8.898096313E0,-3.639381866E0,3.687431946E0,1.029652236E1
9.908653000E0,8.737031250E0,-3.424279175E0,3.853586426E0,1.014453209E1
9.918720000E0,8.697363739E0,-3.181035004E0,4.009562073E0,1.009156617E1
9.928786000E0,8.765172729E0,-2.943329315E0,4.106560364E0,1.011707855E1
9.938853000E0,8.751251678E0,-2.755020905E0,4.092789001E0,1.004616683E1
9.948919000E0,8.670120392E0,-2.594853973E0,3.982169037E0,9.887463021E0
9.958986000E0,8.557554474E0,-2.418520660E0,3.807631989E0,9.673626110E0
9.969052000E0,8.431366882E0,-2.290087738E0,3.594624939E0,9.447421754E0
9.979119000E0,8.309220886E0,-2.248773651E0,3.393443298E0,9.252869398E0
9.989185000E0,8.200247498E0,-2.243833923E0,3.186423798E0,9.079215072E0
9.999252000E0,8.122409363E0,-2.295027466E0,3.081192627E0,8.985234161E0
1.000931800E1,8.070617065E0,-2.361638947E0,3.028801575E0,8.937887743E0
1.001938500E1,8.002209320E0,-2.428100739E0,2.994522858E0,8.882465555E0
1.002945100E1,7.953111420E0,-2.458936615E0,2.963088226E0,8.836189358E0
1.003951800E1,7.880213013E0,-2.471360779E0,2.960094452E0,8.773114634E0
1.004958400E1,7.814050598E0,-2.487976227E0,2.930905151E0,8.708594460E0
1.005965100E1,7.735464020E0,-2.465672607E0,2.887196045E0,8.617009110E0
1.006971800E1,7.670349426E0,-2.489173737E0,2.856210480E0,8.555009323E0
1.007978400E1,7.613018646E0,-2.522853699E0,2.830613708E0,8.505011326E0
1.008985100E1,7.576494598E0,-2.568508759E0,2.838547211E0,8.488690000E0
1.009991700E1,7.538323975E0,-2.670596466E0,2.864443359E0,8.494907274E0
1.010998400E1,7.458839264E0,-2.722239075E0,2.910846863E0,8.456825539E0
1.012005000E1,7.400760040E0,-2.769690399E0,2.941233673E0,8.431683675E0
1.013011700E1,7.320975952E0,-2.786605225E0,2.985092468E0,8.382877466E0
1.014018300E1,7.273374939E0,-2.798879700E0,2.996169434E0,8.349415659E0
1.015025000E1,7.233258362E0,-2.787802734E0,2.969824219E0,8.301308722E0
1.016031600E1,7.164850616E0,-2.741997986E0,2.938838654E0,8.215254710E0
1.017038300E1,7.145091705E0,-2.725382538E0,2.933749237E0,8.190661148E0
1.018044900E1,7.185807037E0,-2.774181061E0,2.943329315E0,8.245913582E0
1.019051600E1,7.122937775E0,-2.832260284E0,2.978356476E0,8.223657833E0
1.020058200E1,7.085216217E0,-2.887345734E0,3.022664337E0,8.226393737E0
1.021064900E1,7.040459290E0,-2.948718109E0,3.091371460E0,8.235264598E0
1.022071500E1,7.063211975E0,-3.082988892E0,3.197500763E0,8.343727886E0
1.023078200E1,7.205266571E0,-3.244203644E0,3.290756836E0,8.559778280E0
1.024084900E1,7.399412842E0,-3.418291626E0,3.344644775E0,8.810373245E0
1.025091500E1,7.666307831E0,-3.621718597E0,3.408412170E0,9.138183347E0
1.026098200E1,8.074508972E0,-3.841461639E0,3.438948669E0,9.580234372E0
1.027104800E1,8.611891479E0,-4.094435577E0,3.427272949E0,1.013288100E1
1.028111500E1,9.148675232E0,-4.275259552E0,3.490591278E0,1.068458376E1
1.029118100E1,9.435329132E0,-4.324357452E0,3.511547699E0,1.095702836E1
1.030124800E1,9.584868164E0,-4.335434418E0,3.419489136E0,1.106158195E1
1.031131400E1,9.836345215E0,-4.394561462E0,3.340303802E0,1.127933895E1
1.032138100E1,1.017434235E1,-4.561165009E0,3.282374268E0,1.162305679E1
1.033144700E1,1.052551208E1,-4.836292877E0,3.254083099E0,1.203184068E1
1.034151400E1,1.070094727E1,-5.015470276E0,3.338058472E0,1.228038472E1
1.035158000E1,1.070858139E1,-5.055736542E0,3.488196259E0,1.234510836E1
1.036164700E1,1.080183746E1,-5.043462067E0,3.586691437E0,1.244911875E1
1.037171300E1,1.094718521E1,-4.996609497E0,3.650309143E0,1.257504383E1
1.038178000E1,1.088027435E1,-4.756808167E0,3.553610229E0,1.239498849E1
1.039184600E1,1.051338730E1,-4.295317841E0,3.346590729E0,1.183979465E1
1.040191283E1,1.000773880E1,-3.705544281E0,3.169658661E0,1.113250333E1
1.041197983E1,9.417516174E0,-3.069367218E0,3.121159515E0,1.038519440E1
1.042204583E1,8.795858917E0,-2.486179962E0,3.202889557E0,9.685387262E0
1.043211283E1,8.286917267E0,-1.957479401E0,3.315006409E0,9.137504631E0
1.044217883E1,8.025560760E0,-1.597927094E0,3.430416412E0,8.873035178E0
1.045224583E1,8.033045197E0,-1.409618683E0,3.640279999E0,8.931320083E0
1.046231183E1,8.183182983E0,-1.376537476E0,3.946692810E0,9.188891299E0
1.047237883E1,8.471483459E0,-1.440604248E0,4.194876709E0,9.562340885E0
1.048244483E1,8.867260437E0,-1.629661102E0,4.312082977E0,9.993906272E0
1.049251183E1,9.259295197E0,-1.960922241E0,4.224215698E0,1.036454349E1
1.050257783E1,9.550290070E0,-2.333946533E0,3.978875885E0,1.060597945E1
1.051264483E1,9.798324280E0,-2.687960358E0,3.720064087E0,1.081994299E1
1.052271083E1,9.879904633E0,-2.866539001E0,3.471880188E0,1.085741744E1
1.053277783E1,9.854158173E0,-2.894979858E0,3.248245239E0,1.077202111E1
1.054284383E1,9.787696381E0,-2.869832153E0,3.073558502E0,1.065277893E1
1.055291083E1,9.719438324E0,-2.736459503E0,2.964884491E0,1.052360356E1
1.056297683E1,9.654174042E0,-2.499651947E0,3.016976166E0,1.041890020E1
1.057304383E1,9.489815826E0,-2.252964935E0,3.175795898E0,1.025758914E1
1.058310983E1,9.251212006E0,-2.004481659E0,3.393592987E0,1.005581144E1
1.059317683E1,9.003626862E0,-1.813927917E0,3.553610229E0,9.848034160E0
1.060324383E1,8.749904480E0,-1.678010559E0,3.628454590E0,9.619887242E0
1.061330983E1,8.438102875E0,-1.592837677E0,3.672313385E0,9.339410987E0
1.062337683E1,8.098459167E0,-1.492845612E0,3.739972687E0,9.044391887E0
1.063344283E1,7.783514099E0,-1.394500122E0,3.785328369E0,8.766780092E0
1.064350983E1,7.523504791E0,-1.345551910E0,3.741619263E0,8.509603339E0
1.065357583E1,7.358996887E0,-1.345252533E0,3.608396301E0,8.305724738E0
1.066364283E1,7.279362488E0,-1.390159149E0,3.381617889E0,8.145980619E0
1.067370883E1,7.261549530E0,-1.444795532E0,3.145259399E0,8.044264565E0
1.068377583E1,7.269782410E0,-1.472487946E0,2.951262817E0,7.982976215E0
1.069384183E1,7.348518677E0,-1.465302887E0,2.831212463E0,8.010218680E0
1.070390883E1,7.487729187E0,-1.434766388E0,2.744393005E0,8.102859738E0
1.071397483E1,7.616910553E0,-1.400936737E0,2.716999969E0,8.207438026E0
1.072404183E1,7.780370636E0,-1.398392029E0,2.628533936E0,8.330597707E0
1.073410783E1,7.939340057E0,-1.369352417E0,2.570005646E0,8.456546317E0
1.074417483E1,8.087232513E0,-1.376238098E0,2.560425568E0,8.593784970E0
1.075424083E1,8.185727692E0,-1.373094635E0,2.619702301E0,8.703698459E0
1.076430783E1,8.287815399E0,-1.365460510E0,2.704575806E0,8.824233496E0
1.077437483E1,8.420289917E0,-1.349892883E0,2.855611725E0,8.993220302E0
1.078444083E1,8.541687469E0,-1.329385529E0,3.069516907E0,9.173310458E0
1.079450783E1,8.655600586E0,-1.258433075E0,3.294798431E0,9.346591465E0
1.080457383E1,8.747958527E0,-1.140328674E0,3.510350189E0,9.494718865E0
1.081464083E1,8.795709229E0,-1.036444702E0,3.681294708E0,9.591175589E0
1.082470683E1,8.878636780E0,-8.699908447E-1,3.760480042E0,9.681336957E0
1.083477383E1,8.945098572E0,-7.165599060E-1,3.815266113E0,9.751128246E0
1.084483983E1,9.028924255E0,-5.785469055E-1,3.845802612E0,9.830889454E0
1.085490683E1,9.150321808E0,-4.796026611E-1,3.867058411E0,9.945478805E0
1.086497283E1,9.297765198E0,-4.658312988E-1,3.884422302E0,1.008732735E1
1.087503983E1,9.499695282E0,-4.947212219E-1,3.916156311E0,1.028713953E1
1.088510583E1,9.774972839E0,-6.176156616E-1,3.900438995E0,1.054253136E1
1.089517283E1,1.004920258E1,-8.297245789E-1,3.825744324E0,1.078476865E1
1.090523883E1,1.022493713E1,-1.160686340E0,3.721261597E0,1.094277479E1
1.091530583E1,1.040231827E1,-1.515448608E0,3.573967896E0,1.110306518E1
1.092537183E1,1.055036041E1,-1.838776245E0,3.459755402E0,1.125438183E1
1.093543883E1,1.065544189E1,-2.138902130E0,3.424877930E0,1.139487311E1
1.094550583E1,1.073342972E1,-2.403701477E0,3.376378784E0,1.150583452E1
1.095557183E1,1.076905563E1,-2.602488098E0,3.333118744E0,1.156958012E1
1.096563883E1,1.079165863E1,-2.786006470E0,3.319347382E0,1.162926460E1
1.097570483E1,1.079674805E1,-2.905158691E0,3.366649017E0,1.167664511E1
1.098577183E1,1.082653610E1,-2.942580872E0,3.434158630E0,1.173312029E1
1.099583783E1,1.108774292E1,-2.950813751E0,3.598816223E0,1.202484191E1
1.100590483E1,1.152917496E1,-3.076552277E0,3.823948059E0,1.253034827E1
1.101597083E1,1.190609116E1,-3.244952087E0,4.046984253E0,1.298702438E1
1.102603783E1,1.212239136E1,-3.382216644E0,4.233795776E0,1.327843320E1
1.103610383E1,1.210233307E1,-3.485052795E0,4.404291229E0,1.334203283E1
1.104617083E1,1.201281921E1,-3.487896881E0,4.521497498E0,1.330102213E1
1.105623683E1,1.173754166E1,-3.440595245E0,4.584965515E0,1.306252229E1
1.106630383E1,1.134805161E1,-3.344195709E0,4.617747345E0,1.269982326E1
1.107636983E1,1.087683151E1,-3.170856171E0,4.637506256E0,1.224198746E1
1.108643683E1,1.037088364E1,-2.871179352E0,4.751269684E0,1.176322498E1
1.109650383E1,9.833650818E0,-2.515968018E0,4.863536224E0,1.125543283E1
1.110656983E1,9.375453644E0,-2.174827423E0,4.960833893E0,1.082769035E1
1.111663683E1,8.993897095E0,-1.898651733E0,5.000800781E0,1.046437154E1
1.112670283E1,8.754095764E0,-1.681154022E0,4.942422180E0,1.019254671E1
1.113676983E1,8.742270355E0,-1.543290710E0,4.913083191E0,1.014630098E1
1.114683583E1,8.959917755E0,-1.511556702E0,4.889432373E0,1.031850177E1
1.115690283E1,9.366921387E0,-1.592837677E0,4.867877197E0,1.067579395E1
1.116696883E1,9.724827118E0,-1.795216827E0,4.812043304E0,1.099776462E1
1.117703583E1,9.948761444E0,-2.131866760E0,4.611909485E0,1.117105274E1
1.118710183E1,1.014320709E1,-2.560575256E0,4.394411774E0,1.134689608E1
1.119716883E1,1.018886215E1,-2.927312622E0,4.214485931E0,1.140806569E1
1.120723483E1,1.005968079E1,-3.100203094E0,4.066593475E0,1.128475163E1
1.121730183E1,9.891131287E0,-3.106939087E0,3.966302032E0,1.110040992E1
1.122736783E1,9.789792023E0,-2.975213013E0,3.810625763E0,1.091846093E1
1.123743483E1,9.760902100E0,-2.809657288E0,3.583398285E0,1.077079974E1
1.124750083E1,9.749974823E0,-2.599644012E0,3.359014893E0,1.063499596E1
1.125756783E1,9.741592255E0,-2.411634979E0,3.144510956E0,1.051677479E1
1.126763483E1,9.657018127E0,-2.269730072E0,3.005599823E0,1.036548619E1
1.127770083E1,9.563013611E0,-2.185605011E0,2.961890717E0,1.024699445E1
1.128776783E1,9.428742828E0,-2.188149719E0,2.922821960E0,1.011098802E1
1.129783383E1,9.324110413E0,-2.294877777E0,2.905458069E0,1.003230709E1
1.130790083E1,9.165590057E0,-2.408491516E0,2.912792816E0,9.914294452E0
1.131796683E1,8.954678650E0,-2.494113464E0,3.000660095E0,9.767846882E0
1.132803383E1,8.712781677E0,-2.540516968E0,3.077300720E0,9.583139921E0
1.133809983E1,8.443491669E0,-2.590812378E0,3.151097260E0,9.377327672E0
1.134816683E1,8.182284851E0,-2.617307281E0,3.203188934E0,9.168451458E0
1.135823283E1,7.954009552E0,-2.614762573E0,3.225043488E0,8.972410867E0
1.136829983E1,7.753127289E0,-2.588866425E0,3.211272125E0,8.782111408E0
1.137836583E1,7.593858490E0,-2.586471405E0,3.183430023E0,8.630802269E0
1.138843283E1,7.439828796E0,-2.611170044E0,3.122656403E0,8.480580436E0
1.139849862E1,7.272476807E0,-2.655926971E0,3.034789124E0,8.315816978E0
1.140856562E1,7.165599060E0,-2.667303314E0,2.944377136E0,8.193270018E0
1.141863262E1,7.122638397E0,-2.738255768E0,2.896626434E0,8.162136184E0
1.142869863E1,7.018904114E0,-2.780168610E0,2.861150208E0,8.073446164E0
1.143876562E1,6.933431854E0,-2.822380829E0,2.831062775E0,8.003326012E0
1.144883162E1,6.912026367E0,-2.888992310E0,2.785557404E0,7.992603776E0
1.145889862E1,6.864874420E0,-2.904859314E0,2.728825378E0,7.937959208E0
1.146896462E1,6.794670410E0,-2.923720093E0,2.645598450E0,7.855881639E0
1.147903163E1,6.742578735E0,-2.906954956E0,2.557880859E0,7.775314116E0
1.148909762E1,6.732998657E0,-2.916834412E0,2.512076111E0,7.755754012E0
1.149916462E1,6.744674377E0,-2.893482971E0,2.504441986E0,7.754682832E0
1.150923063E1,6.731950836E0,-2.844235382E0,2.547252960E0,7.739336833E0
1.151929762E1,6.740632782E0,-2.778372345E0,2.623743896E0,7.748516969E0
1.152936362E1,6.785838776E0,-2.721041565E0,2.717449036E0,7.799756685E0
1.153943062E1,6.857090607E0,-2.709216156E0,2.788700867E0,7.882664289E0
1.154949662E1,6.975045319E0,-2.714155884E0,2.870580597E0,8.016117035E0
1.155956363E1,7.053332520E0,-2.767594757E0,2.902913361E0,8.113937783E0
1.156962962E1,7.148384857E0,-2.879861298E0,2.929707642E0,8.244767676E0
1.157969662E1,7.345674591E0,-3.098706207E0,2.938688965E0,8.496870494E0
1.158976362E1,7.611072693E0,-3.361110535E0,2.897225189E0,8.810187589E0
1.159982962E1,7.961643677E0,-3.676205292E0,2.908302155E0,9.239073374E0
1.160989662E1,8.439599762E0,-4.008065186E0,3.015030212E0,9.817425215E0
1.161996262E1,8.852890320E0,-4.299958191E0,3.198398895E0,1.034857782E1
1.163002962E1,9.004375305E0,-4.442312164E0,3.372786255E0,1.059191197E1
1.164009562E1,9.069190521E0,-4.305796051E0,3.596570892E0,1.066421204E1
1.165016262E1,9.308692474E0,-4.084406433E0,3.823498993E0,1.086062963E1
1.166022862E1,9.794881439E0,-3.997886353E0,3.916904755E0,1.128117638E1
1.167029562E1,1.036594391E1,-4.112697601E0,3.894152069E0,1.181234503E1
1.168036162E1,1.083057770E1,-4.329596558E0,3.779191132E0,1.226087702E1
1.169042862E1,1.104388412E1,-4.551435242E0,3.667972412E0,1.249547762E1
1.170049462E1,1.120360199E1,-4.670737152E0,3.542982330E0,1.264473040E1
1.171056162E1,1.129955246E1,-4.740641785E0,3.449726257E0,1.273005034E1
1.172062762E1,1.132484985E1,-4.737947388E0,3.405717773E0,1.273967359E1
1.173069462E1,1.107531876E1,-4.521647186E0,3.367397461E0,1.242768460E1
1.174076162E1,1.060215271E1,-4.088747406E0,3.276386719E0,1.182616622E1
1.175082762E1,1.004665787E1,-3.523822174E0,3.320395203E0,1.115247422E1
1.176089462E1,9.586514740E0,-2.910697174E0,3.459755402E0,1.059921367E1
1.177096062E1,9.282496948E0,-2.360890503E0,3.566782837E0,1.022059163E1
1.178102762E1,9.130413208E0,-1.928739166E0,3.554807739E0,9.986047175E0
1.179109362E1,9.087751923E0,-1.623224487E0,3.551215210E0,9.891067799E0
1.180116063E1,9.187444611E0,-1.447639618E0,3.636687469E0,9.986505629E0
1.181122662E1,9.386979675E0,-1.438807983E0,3.764371948E0,1.021548100E1
1.182129362E1,9.690698090E0,-1.623823242E0,3.950584717E0,1.059025736E1
1.183135962E1,1.000459534E1,-2.001637573E0,4.056564331E0,1.097971744E1
1.184142662E1,1.015323624E1,-2.410886536E0,3.932173004E0,1.115179647E1
1.185149262E1,1.026864624E1,-2.709665222E0,3.754941559E0,1.126441154E1
1.186155962E1,1.033989807E1,-2.904410248E0,3.568878479E0,1.131750788E1
1.187162562E1,1.023810974E1,-2.909649353E0,3.406615906E0,1.117541867E1
1.188169263E1,1.014829651E1,-2.774779816E0,3.265010376E0,1.101578948E1
1.189175962E1,1.013841705E1,-2.577041016E0,3.191962280E0,1.093696777E1
1.190182562E1,1.008123596E1,-2.298021240E0,3.178789673E0,1.081743611E1
1.191189262E1,9.890233154E0,-2.016307068E0,3.275189209E0,1.061174210E1
1.192195862E1,9.625433807E0,-1.698966980E0,3.355572052E0,1.033418253E1
1.193202562E1,9.357940063E0,-1.413211212E0,3.453019409E0,1.007430152E1
1.194209162E1,9.031019897E0,-1.217568054E0,3.487896881E0,9.757418563E0
1.195215862E1,8.637338562E0,-1.063388672E0,3.525169373E0,9.389421282E0
1.196222463E1,8.258925476E0,-9.741741943E-1,3.551813965E0,9.042911468E0
1.197229162E1,7.852520599E0,-9.301657104E-1,3.562292175E0,8.672785801E0
1.198235762E1,7.555837555E0,-9.327104187E-1,3.518433380E0,8.386894737E0
1.199242462E1,7.305258636E0,-9.861492920E-1,3.438649292E0,8.134101249E0
1.200249062E1,7.171287231E0,-1.109492798E0,3.330574036E0,7.984425980E0
1.201255762E1,7.106022949E0,-1.228345642E0,3.164269867E0,7.875087235E0
1.202262362E1,7.113657074E0,-1.300495605E0,3.020419006E0,7.836985183E0
1.203269062E1,7.231312408E0,-1.376836853E0,2.944676514E0,7.928346526E0
1.204275763E1,7.422913971E0,-1.436562653E0,2.861748962E0,8.084118455E0
1.205282362E1,7.571854248E0,-1.459614716E0,2.817291412E0,8.209785793E0
1.206289062E1,7.676786041E0,-1.470392303E0,2.763253784E0,8.290396186E0
1.207295662E1,7.776927795E0,-1.530567169E0,2.704126740E0,8.374696605E0
1.208302362E1,7.903414764E0,-1.593735809E0,2.674638062E0,8.494565765E0
1.209308962E1,8.001610565E0,-1.608704681E0,2.693498840E0,8.594686637E0
1.210315662E1,8.174351349E0,-1.617686005E0,2.748883667E0,8.774582007E0
1.211322262E1,8.357270966E0,-1.582808533E0,2.909050598E0,8.989540379E0
1.212328963E1,8.528215485E0,-1.500779114E0,3.142265625E0,9.211765876E0
1.213335562E1,8.688083038E0,-1.438957672E0,3.342549133E0,9.419449069E0
1.214342262E1,8.814270630E0,-1.400038605E0,3.511547699E0,9.590747733E0
1.215348862E1,8.918753357E0,-1.351240082E0,3.612138519E0,9.716869655E0
1.216355562E1,8.925189972E0,-1.281185760E0,3.679648132E0,9.738596581E0
1.217362162E1,8.867859192E0,-1.168470154E0,3.750301208E0,9.698917893E0
1.218368862E1,8.821156311E0,-1.034947815E0,3.822002106E0,9.669106253E0
1.219375562E1,8.872200165E0,-8.933422852E-1,3.849544830E0,9.712517264E0
1.220382163E1,9.050479431E0,-7.860154724E-1,3.838767242E0,9.862308665E0
1.221388862E1,9.251810760E0,-7.195536804E-1,3.802692261E0,1.002867031E1
1.222395462E1,9.529183960E0,-7.140151978E-1,3.739074554E0,1.026137628E1
1.223402162E1,9.910441132E0,-8.419990540E-1,3.664529572E0,1.059974447E1
1.224408762E1,1.019380188E1,-1.100810852E0,3.619173889E0,1.087307688E1
1.225415462E1,1.047297134E1,-1.442101135E0,3.591182098E0,1.116509621E1
1.226422062E1,1.069810318E1,-1.812880096E0,3.604504395E0,1.143365199E1
1.227428762E1,1.094194611E1,-2.231409760E0,3.658242645E0,1.175108988E1
1.228435363E1,1.111648315E1,-2.543061676E0,3.762575684E0,1.200834444E1
1.229442062E1,1.117575989E1,-2.704126740E0,3.912264404E0,1.214560510E1
1.230448662E1,1.110735214E1,-2.710413666E0,4.087849274E0,1.214208077E1
1.231455362E1,1.101215012E1,-2.564467163E0,4.300257568E0,1.209694826E1
1.232461962E1,1.111738129E1,-2.449057159E0,4.440066833E0,1.221917514E1
1.233468662E1,1.144699585E1,-2.568658447E0,4.500391388E0,1.256523947E1
1.234475362E1,1.166120041E1,-2.906655579E0,4.560117188E0,1.285406202E1
1.235481962E1,1.159114609E1,-3.219804382E0,4.585863647E0,1.287446905E1
1.236488663E1,1.130359406E1,-3.320694580E0,4.596192169E0,1.264607581E1
1.237495262E1,1.090377548E1,-3.217559052E0,4.511767731E0,1.223115097E1
1.238501962E1,1.050829788E1,-3.097658386E0,4.274361420E0,1.175967591E1
1.239508571E1,1.017494110E1,-2.872975616E0,4.030668182E0,1.131502105E1
1.240515271E1,9.890831909E0,-2.513872375E0,3.814817047E0,1.089499607E1
1.241521871E1,9.783505096E0,-2.127226410E0,3.625460815E0,1.064828767E1
1.242528571E1,9.920470276E0,-1.803599396E0,3.489992523E0,1.066999293E1
1.243535171E1,1.014215927E1,-1.692829742E0,3.346890106E0,1.081345184E1
1.244541871E1,1.041489212E1,-1.827399902E0,3.189716949E0,1.104462143E1
1.245548471E1,1.070409073E1,-2.159409485E0,3.096760254E0,1.135035381E1
1.246555171E1,1.090781708E1,-2.661016388E0,3.063828735E0,1.163823561E1
1.247561871E1,1.107262436E1,-3.218157806E0,3.138523407E0,1.195030874E1
1.248568471E1,1.106573868E1,-3.712879028E0,3.323239288E0,1.213589562E1
1.249575171E1,1.085467758E1,-4.018094330E0,3.630400543E0,1.213049527E1
1.250581771E1,1.060320053E1,-4.162094879E0,3.959715729E0,1.205944625E1
1.251588471E1,1.043629761E1,-4.115092621E0,4.132157135E0,1.195512516E1
1.252595071E1,1.036354889E1,-3.851191406E0,4.166136475E0,1.181488527E1
1.253601771E1,1.042596909E1,-3.552412720E0,4.061653748E0,1.173956978E1
1.254608371E1,1.030861313E1,-3.188220062E0,3.850143585E0,1.145669487E1
1.255615071E1,1.011731094E1,-2.798131256E0,3.695814514E0,1.112872698E1
1.256621671E1,9.926008759E0,-2.453697510E0,3.561543732E0,1.082732077E1
1.257628371E1,9.696386261E0,-2.184557190E0,3.504662018E0,1.053920550E1
1.258634971E1,9.468859406E0,-1.962269440E0,3.416645050E0,1.025588920E1
1.259641671E1,9.281449127E0,-1.857936401E0,3.322640533E0,1.003180770E1
1.260648371E1,9.063202972E0,-1.818867645E0,3.240760803E0,9.795532564E0
1.261654971E1,8.808582458E0,-1.892664185E0,3.077450409E0,9.520714451E0
1.262661671E1,8.542884979E0,-2.032473450E0,2.852468262E0,9.233006405E0
1.263668271E1,8.369844818E0,-2.163750458E0,2.673440552E0,9.048944839E0
1.264674971E1,8.311915283E0,-2.297123108E0,2.518812103E0,8.983825725E0
1.265681571E1,8.305927734E0,-2.431693268E0,2.468816071E0,8.999812246E0
1.266688271E1,8.253237305E0,-2.570903778E0,2.448458405E0,8.984454396E0
1.267694871E1,8.235124969E0,-2.683469696E0,2.394720154E0,8.986266048E0
1.268701571E1,8.191715240E0,-2.835403748E0,2.307900696E0,8.970513843E0
1.269708171E1,8.148604889E0,-2.950514374E0,2.230811005E0,8.948844308E0
1.270714871E1,8.042924652E0,-3.016377411E0,2.183060303E0,8.863008627E0
1.271721471E1,7.952362976E0,-3.072510681E0,2.123035126E0,8.785651765E0
1.272728171E1,7.832162933E0,-3.098406830E0,2.109263763E0,8.682850610E0
1.273734871E1,7.682923279E0,-3.072211304E0,2.154619446E0,8.550332003E0
1.274741471E1,7.537126465E0,-2.979104919E0,2.157313843E0,8.386736224E0
1.275748171E1,7.400460663E0,-2.856060791E0,2.214494934E0,8.235768882E0
1.276754771E1,7.351213074E0,-2.728226624E0,2.300416260E0,8.171625856E0
1.277761471E1,7.298822021E0,-2.577789459E0,2.382745056E0,8.099091023E0
1.278768071E1,7.233557739E0,-2.475552063E0,2.429597626E0,8.022197966E0
1.279774771E1,7.138355713E0,-2.431094513E0,2.470462646E0,7.935334177E0
1.280781371E1,7.047045593E0,-2.413580933E0,2.462828522E0,7.845492262E0
1.281788071E1,6.972051544E0,-2.433040466E0,2.462229767E0,7.784071176E0
1.282794671E1,6.887327728E0,-2.477647705E0,2.420765991E0,7.709353369E0
1.283801371E1,6.781946869E0,-2.531086578E0,2.351011047E0,7.611074533E0
1.284807971E1,6.747668152E0,-2.534080353E0,2.223326569E0,7.542928460E0
1.285814671E1,6.802603912E0,-2.571652222E0,2.135309601E0,7.579469785E0
1.286821371E1,6.941365356E0,-2.626587982E0,2.136956177E0,7.723218186E0
1.287827971E1,7.154222717E0,-2.705473938E0,2.215842133E0,7.963193347E0
1.288834671E1,7.355104980E0,-2.800376587E0,2.435884552E0,8.238520004E0
1.289841271E1,7.710016937E0,-2.982847137E0,2.723436584E0,8.703955713E0
1.290847971E1,8.058791656E0,-3.135679321E0,2.976111145E0,9.145154199E0
1.291854571E1,8.498427429E0,-3.286415863E0,3.195105743E0,9.655697733E0
1.292861271E1,8.869805145E0,-3.437002716E0,3.351380768E0,1.008554332E1
1.293867871E1,9.161997528E0,-3.497476959E0,3.502266998E0,1.041347290E1
1.294874571E1,9.421258392E0,-3.403622131E0,3.675756226E0,1.067032976E1
1.295881171E1,9.701325989E0,-3.223995667E0,3.830534363E0,1.091709062E1
1.296887871E1,1.021026764E1,-3.158282318E0,3.963308258E0,1.139877734E1
1.297894471E1,1.087877747E1,-3.246149597E0,4.089944916E0,1.206701851E1
1.298901171E1,1.141571091E1,-3.385060730E0,4.176165619E0,1.261813976E1
1.299907871E1,1.174996582E1,-3.433559875E0,4.217330017E0,1.294746704E1
1.300914471E1,1.199395844E1,-3.419489136E0,4.233795776E0,1.317091385E1
1.301921171E1,1.218032089E1,-3.398083649E0,4.205504608E0,1.332641957E1
1.302927771E1,1.219274506E1,-3.323838043E0,4.122726746E0,1.329314888E1
1.303934471E1,1.188229065E1,-3.151246948E0,3.985312500E0,1.292292166E1
1.304941071E1,1.123997635E1,-2.798280945E0,3.793710938E0,1.218850636E1
1.305947771E1,1.051578232E1,-2.329605560E0,3.668720856E0,1.137841169E1
1.306954371E1,9.959539032E0,-1.841320953E0,3.629053345E0,1.075885258E1
1.307961071E1,9.623637543E0,-1.368005219E0,3.596720581E0,1.036446992E1
1.308967671E1,9.393865356E0,-1.052162018E0,3.511248322E0,1.008368068E1
1.309974371E1,9.315129089E0,-8.318202209E-1,3.415746918E0,9.956449259E0
1.310980971E1,9.284891968E0,-7.279362488E-1,3.351380768E0,9.898023191E0
1.311987671E1,9.295370178E0,-7.845185852E-1,3.326981506E0,9.903947804E0
1.312994371E1,9.325607300E0,-9.937834167E-1,3.276087341E0,9.934148441E0
1.314000971E1,9.345366211E0,-1.339264984E0,3.176993408E0,9.961063569E0
1.315007671E1,9.388626251E0,-1.715881805E0,3.024759979E0,1.001197913E1
1.316014271E1,9.445507965E0,-2.061363373E0,2.924468536E0,1.010046315E1
1.317020971E1,9.368717651E0,-2.298769684E0,2.906056824E0,1.007483889E1
1.318027571E1,9.265282745E0,-2.413131866E0,2.843486938E0,9.987696818E0
1.319034271E1,9.102571106E0,-2.420616302E0,2.774330750E0,9.819017014E0
1.320040871E1,9.031768341E0,-2.415077820E0,2.657723236E0,9.719513004E0
1.321047571E1,8.938661957E0,-2.383343811E0,2.517614594E0,9.587407811E0
1.322054171E1,8.781788177E0,-2.295177155E0,2.401905212E0,9.389184758E0
1.323060871E1,8.587342529E0,-2.188299408E0,2.359692993E0,9.170564707E0
1.324067571E1,8.360115051E0,-2.039508820E0,2.418221283E0,8.938619248E0
1.325074171E1,7.992629242E0,-1.869013367E0,2.536026306E0,8.591086229E0
1.326080871E1,7.771389313E0,-1.452878723E0,2.587369537E0,8.318643493E0
1.327087471E1,7.452851715E0,-1.253792725E0,2.510728912E0,7.963714872E0
1.328094171E1,7.170987854E0,-1.226848755E0,2.584375763E0,7.720571401E0
1.329100771E1,7.227121124E0,-1.116528168E0,2.627635803E0,7.770610324E0
1.330107471E1,7.191195831E0,-8.744815063E-1,2.656825104E0,7.716005121E0
1.331114071E1,7.107220459E0,-9.681866455E-1,2.677182770E0,7.656191979E0
1.332120771E1,7.025490417E0,-1.197958832E0,2.760858765E0,7.642968146E0
1.333127371E1,7.157066803E0,-1.432521057E0,2.934048615E0,7.866661495E0
1.334134071E1,7.292984161E0,-1.700613556E0,3.073857880E0,8.094955634E0
1.335140671E1,7.483687592E0,-1.984573059E0,3.182681580E0,8.370995892E0
1.336147371E1,7.749235382E0,-2.247576141E0,3.314856720E0,8.722988169E0
1.337154071E1,7.999514923E0,-2.521955566E0,3.460503845E0,9.073455006E0
1.338160671E1,8.169261932E0,-2.739752655E0,3.554957428E0,9.320987472E0
1.339167371E1,8.174051971E0,-2.853216705E0,3.588487701E0,9.371937643E0
1.340174071E1,8.007598114E0,-2.752775574E0,3.610641632E0,9.205223186E0
1.341180771E1,7.793094177E0,-2.523003387E0,3.576811981E0,8.938201547E0
1.342187371E1,7.607480164E0,-2.231559448E0,3.467838593E0,8.653295125E0
1.343194071E1,7.569309540E0,-1.947599945E0,3.370540924E0,8.511647230E0
1.344200671E1,7.634274445E0,-1.673220520E0,3.367397461E0,8.510063388E0
1.345207371E1,7.747888184E0,-1.417851562E0,3.430566101E0,8.591208188E0
1.346213971E1,7.963290253E0,-1.212029572E0,3.509901123E0,8.786490382E0
1.347220671E1,8.190667419E0,-1.102158051E0,3.560196533E0,8.998710158E0
1.348227271E1,8.409512329E0,-1.004411316E0,3.515738983E0,9.170014193E0
1.349233971E1,8.622070312E0,-9.437873840E-1,3.402873688E0,9.317208833E0
1.350240671E1,8.751401367E0,-8.523275757E-1,3.231480103E0,9.367814678E0
1.351247271E1,8.890312500E0,-7.635621643E-1,3.077749786E0,9.438920874E0
1.352253971E1,8.998687134E0,-6.914122009E-1,2.955753479E0,9.496888943E0
1.353260571E1,9.072184296E0,-6.514453125E-1,2.862048340E0,9.535209992E0
1.354267271E1,9.243428192E0,-7.018904114E-1,2.835104370E0,9.693886304E0
1.355273871E1,9.544452209E0,-8.653504944E-1,2.838696899E0,9.995178815E0
1.356280571E1,9.850415955E0,-1.100511475E0,2.996169434E0,1.035465360E1
1.357287171E1,1.021041733E1,-1.364712067E0,3.243604889E0,1.079981637E1
1.358293871E1,1.064346680E1,-1.652862854E0,3.493435364E0,1.132340195E1
1.359300471E1,1.109926895E1,-2.006427612E0,3.653003540E0,1.185596718E1
1.360307171E1,1.144849274E1,-2.272723846E0,3.753444672E0,1.226057122E1
1.361313771E1,1.166793640E1,-2.473606110E0,3.791615295E0,1.251542303E1
1.362320471E1,1.186747147E1,-2.639910278E0,3.830833740E0,1.274681499E1
1.363327171E1,1.212478638E1,-2.803070984E0,3.952530670E0,1.305718769E1
1.364333771E1,1.243853394E1,-3.038381653E0,4.156556396E0,1.346201510E1
1.365340471E1,1.268507126E1,-3.210673370E0,4.369264069E0,1.379528633E1
1.366347071E1,1.271306305E1,-3.257076874E0,4.570894775E0,1.389689177E1
1.367353771E1,1.259421021E1,-3.189267883E0,4.766088867E0,1.383839454E1
1.368360371E1,1.240171051E1,-3.050506439E0,4.877606964E0,1.367110320E1
1.369367071E1,1.211924789E1,-2.861449585E0,4.925507355E0,1.339121675E1
1.370373671E1,1.173814041E1,-2.573298798E0,4.925956421E0,1.298733436E1
1.371380371E1,1.132544861E1,-2.247426453E0,4.917274475E0,1.254975299E1
1.372386971E1,1.096948883E1,-1.879192200E0,4.908742218E0,1.216374937E1
1.373393671E1,1.069376221E1,-1.540446625E0,4.844974823E0,1.184074774E1
1.374400271E1,1.039393570E1,-1.248403931E0,4.808899841E0,1.152032679E1
1.375406971E1,1.017778519E1,-1.040186920E0,4.693190460E0,1.125590231E1
1.376413671E1,1.013512390E1,-9.931846619E-1,4.556225281E0,1.115644841E1
1.377420271E1,1.008273285E1,-1.158740387E0,4.388274536E0,1.105717570E1
1.378426971E1,1.008872040E1,-1.496438141E0,4.182302856E0,1.102330547E1
1.379433571E1,1.016116974E1,-1.924996948E0,3.975283356E0,1.107961468E1
1.380440271E1,1.021191422E1,-2.322719879E0,3.862418060E0,1.116227991E1
1.381446871E1,1.014994308E1,-2.629432068E0,3.828588409E0,1.116213899E1
1.382453571E1,1.001013382E1,-2.842139740E0,3.688779144E0,1.104027305E1
1.383460171E1,9.788145447E0,-3.008443909E0,3.487298126E0,1.081756785E1
1.384466871E1,9.579030304E0,-3.081641693E0,3.298540649E0,1.058936766E1
1.385473471E1,9.527836761E0,-3.065175934E0,3.109483795E0,1.048064246E1
1.386480171E1,9.518855438E0,-3.006497955E0,2.935395813E0,1.040500780E1
1.387486871E1,9.499545593E0,-2.904410248E0,2.856809235E0,1.033626259E1
1.388493471E1,9.456884308E0,-2.764301605E0,2.835104370E0,1.025240659E1
1.389500171E1,9.391919403E0,-2.618654480E0,2.874771881E0,1.016512738E1
1.390506771E1,9.251511383E0,-2.457439728E0,2.876568146E0,9.995204709E0
1.391513471E1,9.050479431E0,-2.315235443E0,2.819387054E0,9.758095944E0
1.392520071E1,8.796158295E0,-2.199526062E0,2.787802734E0,9.485892669E0
1.393526771E1,8.549471283E0,-2.134411469E0,2.705024872E0,9.217718324E0
1.394533371E1,8.362510071E0,-2.121089172E0,2.659818878E0,9.028024724E0
1.395540071E1,8.264613647E0,-2.126178589E0,2.620750122E0,8.927082689E0
1.396546671E1,8.227341156E0,-2.185605011E0,2.556383972E0,8.888256903E0
1.397553371E1,8.226443024E0,-2.316882019E0,2.527344360E0,8.912338449E0
1.398559971E1,8.183781738E0,-2.431693268E0,2.526146851E0,8.903304645E0
1.399566671E1,8.078400879E0,-2.518812103E0,2.542911987E0,8.835800844E0
1.400573371E1,7.942782898E0,-2.596051483E0,2.569257202E0,8.742331842E0
1.401579971E1,7.725434875E0,-2.685565338E0,2.620151367E0,8.588352484E0
1.402586671E1,7.539521484E0,-2.705623627E0,2.657723236E0,8.439684604E0
1.403593271E1,7.345674591E0,-2.713856506E0,2.690056000E0,8.280117971E0
1.404599971E1,7.243437195E0,-2.777474213E0,2.672093353E0,8.204988013E0
1.405606571E1,7.147636414E0,-2.831661530E0,2.647993469E0,8.131351839E0
1.406613271E1,7.119045868E0,-2.863395538E0,2.643502808E0,8.115907538E0
1.407619871E1,7.104526062E0,-2.931803284E0,2.626587982E0,8.122113363E0
1.408626571E1,7.156168671E0,-2.960393829E0,2.585722961E0,8.164597045E0
1.409633171E1,7.209158478E0,-2.992726593E0,2.529589691E0,8.205315498E0
1.410639871E1,7.179819489E0,-3.000660095E0,2.478994904E0,8.166956877E0
1.411646471E1,7.121291199E0,-3.016826477E0,2.420765991E0,8.103958188E0
1.412653171E1,7.036567383E0,-2.980452118E0,2.408341827E0,8.012270946E0
1.413659871E1,6.954388275E0,-2.925516357E0,2.401905212E0,7.917784468E0
1.414666471E1,6.896608429E0,-2.807262268E0,2.441722412E0,7.836194076E0
1.415673171E1,6.867119751E0,-2.676883392E0,2.519859924E0,7.789270339E0
1.416679771E1,6.938970337E0,-2.580034790E0,2.637215881E0,7.858803755E0
1.417686471E1,7.015910339E0,-2.530637512E0,2.712060242E0,7.936144836E0
1.418693071E1,7.149732056E0,-2.589016113E0,2.777623901E0,8.095484386E0
1.419699771E1,7.372019806E0,-2.710413666E0,2.820135498E0,8.345428838E0
1.420706371E1,7.614814911E0,-2.905907135E0,2.841990051E0,8.631721141E0
1.421713071E1,7.853269043E0,-3.129542084E0,2.897524567E0,8.936639018E0
1.422719671E1,8.099506989E0,-3.314856720E0,2.959495697E0,9.238447018E0
1.423726371E1,8.402626648E0,-3.534599762E0,3.124153290E0,9.636278526E0
1.424732971E1,8.719667358E0,-3.749852142E0,3.330873413E0,1.005925980E1
1.425739671E1,8.973539429E0,-3.933819580E0,3.518882446E0,1.041066184E1
1.426746371E1,9.223220215E0,-4.036655731E0,3.702251129E0,1.072702401E1
1.427752971E1,9.158854065E0,-4.008963318E0,3.859274597E0,1.071682766E1
1.428759671E1,9.012608185E0,-3.817212067E0,3.990401917E0,1.056984019E1
1.429766271E1,8.995244293E0,-3.666026459E0,4.024680634E0,1.051438177E1
1.430772971E1,9.454638977E0,-3.718417511E0,3.982917480E0,1.091239931E1
1.431779571E1,1.029304550E1,-4.133953400E0,3.850143585E0,1.174137820E1
1.432786271E1,1.100810852E1,-4.678970032E0,3.741768951E0,1.253283881E1
1.433792871E1,1.142349472E1,-5.076543274E0,3.671864319E0,1.302881847E1
1.434799571E1,1.162632294E1,-5.215753784E0,3.702700195E0,1.326971971E1
1.435806171E1,1.173364975E1,-5.279521179E0,3.742667084E0,1.339997900E1
1.436812871E1,1.163141235E1,-5.088518372E0,3.725303192E0,1.323104895E1
1.437819571E1,1.140747803E1,-4.589306488E0,3.556005249E0,1.279990087E1
1.438826171E1,1.105391327E1,-3.963607635E0,3.312162323E0,1.220121319E1
1.439832796E1,1.055829391E1,-3.219954071E0,3.172951813E0,1.148535145E1
1.440839396E1,9.973011017E0,-2.477647705E0,3.065325623E0,1.072361451E1
1.441846096E1,9.415869598E0,-1.861828308E0,3.024610291E0,1.006346224E1
1.442852696E1,8.988208923E0,-1.543440399E0,3.050356750E0,9.616381036E0
1.443859396E1,8.819509735E0,-1.437311096E0,3.207978973E0,9.494247956E0
1.444865996E1,8.807085571E0,-1.439257050E0,3.497626648E0,9.584863551E0
1.445872696E1,9.003327484E0,-1.574425964E0,3.903283081E0,9.938528146E0
1.446879296E1,9.344168701E0,-1.884431305E0,4.273762665E0,1.044651221E1
1.447885996E1,9.616003418E0,-2.212548981E0,4.424648895E0,1.081389905E1
1.448892596E1,9.821825409E0,-2.465522919E0,4.270319824E0,1.099011779E1
1.449899296E1,1.003977219E1,-2.694995728E0,4.000880127E0,1.113853982E1
1.450905996E1,1.010099487E1,-2.770438843E0,3.710933075E0,1.111199591E1
1.451912596E1,1.003348526E1,-2.691103821E0,3.387156372E0,1.092637609E1
1.452919296E1,9.861642609E0,-2.515219574E0,3.087329865E0,1.063531523E1
1.453925896E1,9.649234314E0,-2.259850616E0,2.878663788E0,1.031994927E1
1.454932596E1,9.408534851E0,-2.046993256E0,2.775378571E0,1.002065046E1
1.455939196E1,9.142088928E0,-1.905986481E0,2.765648804E0,9.739578417E0
1.456945896E1,8.860374756E0,-1.834584961E0,2.872376862E0,9.493286661E0
1.457952496E1,8.529862061E0,-1.791025543E0,2.994822235E0,9.216033826E0
1.458959196E1,8.180488586E0,-1.758992157E0,3.138224030E0,8.936604332E0
1.459965796E1,7.820337524E0,-1.726210327E0,3.240012360E0,8.639164380E0
1.460972496E1,7.422315216E0,-1.711989899E0,3.273991699E0,8.291000798E0
1.461979196E1,7.154222717E0,-1.664837952E0,3.286266174E0,8.046995306E0
1.462985796E1,6.927444305E0,-1.616039429E0,3.308569794E0,7.845234357E0
1.463992496E1,6.788233795E0,-1.615590363E0,3.269201660E0,7.705707610E0
1.464999096E1,6.789730682E0,-1.630110168E0,3.204236755E0,7.682762204E0
1.466005796E1,6.943161621E0,-1.724114685E0,3.094814301E0,7.794737988E0
1.467012396E1,7.086563416E0,-1.847158813E0,2.985541534E0,7.908529255E0
1.468019096E1,7.228917389E0,-1.982627106E0,2.900218964E0,8.037370645E0
1.469025696E1,7.291936340E0,-2.072440338E0,2.822081451E0,8.088973252E0
1.470032396E1,7.297474823E0,-2.129920807E0,2.749033356E0,8.083742068E0
1.471038996E1,7.288942566E0,-2.148182831E0,2.714305573E0,8.069128078E0
1.472045696E1,7.302564240E0,-2.139500885E0,2.749781799E0,8.091119110E0
1.473052296E1,7.438481598E0,-2.056723022E0,2.936892700E0,8.257509116E0
1.474058996E1,7.669301605E0,-1.890568542E0,3.278033295E0,8.552072194E0
1.475065696E1,7.965685272E0,-1.750010834E0,3.665427704E0,8.941478626E0
1.476072296E1,8.297994232E0,-1.636696472E0,3.958069153E0,9.338190137E0
1.477078996E1,8.586145020E0,-1.511107635E0,4.094285889E0,9.631641061E0
1.478085596E1,8.808582458E0,-1.400337982E0,4.161945190E0,9.842451888E0
1.479092296E1,8.878786469E0,-1.263971558E0,4.232149200E0,9.916731322E0
1.480098896E1,8.855734406E0,-1.103654938E0,4.255051575E0,9.886736063E0
1.481105596E1,8.757538605E0,-9.451345825E-1,4.215533752E0,9.765167004E0
1.482112196E1,8.734187164E0,-8.078700256E-1,4.173620911E0,9.713793847E0
1.483118896E1,8.805588684E0,-6.978488159E-1,4.135300598E0,9.753260792E0
1.484125496E1,8.900191956E0,-5.824388123E-1,4.111949158E0,9.821444786E0
1.485132196E1,9.067394257E0,-4.382885742E-1,4.026626587E0,9.930934354E0
1.486138896E1,9.295968933E0,-3.444337463E-1,3.905827789E0,1.008906159E1
1.487145496E1,9.627529449E0,-2.923420715E-1,3.757486267E0,1.033893081E1
1.488152196E1,9.987680511E0,-4.575984192E-1,3.531905365E0,1.060365568E1
1.489158796E1,1.025457550E1,-7.839198303E-1,3.327430573E0,1.080937756E1
1.490165496E1,1.044243484E1,-1.172661438E0,3.197051697E0,1.098365695E1
1.491172096E1,1.062849792E1,-1.606159973E0,3.158282318E0,1.120354699E1
1.492178796E1,1.082533859E1,-2.057621155E0,3.163072357E0,1.146415227E1
1.493185396E1,1.106034988E1,-2.543510742E0,3.157234497E0,1.178002191E1
1.494192096E1,1.122934845E1,-2.942131805E0,3.139870605E0,1.202552259E1
1.495198696E1,1.131242569E1,-3.269051971E0,3.107388153E0,1.217840453E1
1.496205396E1,1.144579834E1,-3.478616180E0,3.131188660E0,1.236573542E1
1.497211996E1,1.164129181E1,-3.560046844E0,3.223546600E0,1.259304813E1
1.498218696E1,1.173409882E1,-3.515738983E0,3.363206177E0,1.270278125E1
1.499225396E1,1.171763306E1,-3.234024811E0,3.590583344E0,1.267494101E1
1.500231996E1,1.171374115E1,-2.777623901E0,3.849395142E0,1.263901773E1
1.501238696E1,1.176373718E1,-2.451152802E0,3.959715729E0,1.265199633E1
1.502245296E1,1.160252243E1,-2.288740540E0,3.876189423E0,1.244514783E1
1.503251996E1,1.120629639E1,-2.148781586E0,3.695215759E0,1.199387179E1
1.504258596E1,1.067505112E1,-1.982028351E0,3.568728790E0,1.142895349E1
1.505265296E1,1.014829651E1,-1.773811340E0,3.603606262E0,1.091422497E1
1.506271896E1,9.761949921E0,-1.554367676E0,3.735482025E0,1.056719220E1
1.507278596E1,9.585167542E0,-1.370849304E0,3.851490784E0,1.042058760E1
1.508285196E1,9.663903809E0,-1.292113037E0,3.976929932E0,1.052979414E1
1.509291896E1,9.907297668E0,-1.362466736E0,4.046235809E0,1.078809005E1
1.510298596E1,1.024813889E1,-1.598376160E0,4.085903320E0,1.114781427E1
1.511305196E1,1.055185730E1,-2.051034851E0,4.000281372E0,1.146955481E1
1.512311896E1,1.067490143E1,-2.554438019E0,3.809428253E0,1.161853768E1
1.513318496E1,1.079285614E1,-3.077899475E0,3.672762451E0,1.180882690E1
1.514325196E1,1.085318069E1,-3.538192291E0,3.625460815E0,1.197724100E1
1.515331796E1,1.080333435E1,-3.849245453E0,3.580554199E0,1.201453670E1
1.516338496E1,1.061008621E1,-4.012106781E0,3.569177856E0,1.189159202E1
1.517345096E1,1.030367340E1,-4.019142151E0,3.540737000E0,1.161275194E1
1.518351796E1,9.965975647E0,-3.920946350E0,3.469485168E0,1.125752274E1
1.519358396E1,9.658964081E0,-3.696712646E0,3.453019409E0,1.090342215E1
1.520365096E1,9.350305939E0,-3.365451508E0,3.514840851E0,1.054080600E1
1.521371796E1,9.137747955E0,-3.019221497E0,3.644471283E0,1.029059314E1
1.522378396E1,8.963659973E0,-2.782563629E0,3.685635681E0,1.008334125E1
1.523385096E1,8.739426270E0,-2.648292847E0,3.689527588E0,9.849042611E0
1.524391696E1,8.521180115E0,-2.622546387E0,3.670666809E0,9.641683200E0
1.525398396E1,8.237669678E0,-2.639910278E0,3.589385834E0,9.365469484E0
1.526404996E1,8.014483795E0,-2.650388489E0,3.553759918E0,9.158914739E0
1.527411696E1,7.840096436E0,-2.687660980E0,3.480562134E0,8.989157159E0
1.528418296E1,7.741002502E0,-2.717898102E0,3.395389252E0,8.879119213E0
1.529424996E1,7.669301605E0,-2.733615417E0,3.252586212E0,8.767562799E0
1.530431596E1,7.608527985E0,-2.732717285E0,3.118914185E0,8.665164023E0
1.531438296E1,7.579937439E0,-2.682571564E0,2.922971649E0,8.555431318E0
1.532444896E1,7.596702576E0,-2.629881134E0,2.735112305E0,8.491584312E0
1.533451596E1,7.567662964E0,-2.572999420E0,2.620151367E0,8.411601627E0
1.534458296E1,7.546407166E0,-2.529140625E0,2.511776733E0,8.345887357E0
1.535464896E1,7.531587982E0,-2.522853699E0,2.412533112E0,8.301200174E0
1.536471596E1,7.529791718E0,-2.566562805E0,2.342029724E0,8.292774636E0
1.537478196E1,7.593858490E0,-2.650987244E0,2.259551239E0,8.354638947E0
1.538484896E1,7.645201721E0,-2.776875458E0,2.217788086E0,8.430820284E0
1.539491496E1,7.711962891E0,-2.885100403E0,2.170037384E0,8.515118215E0
1.540498233E1,7.725734253E0,-2.956950989E0,2.182162170E0,8.555253394E0
1.541504833E1,7.761210480E0,-2.989882507E0,2.239792328E0,8.613504234E0
1.542511533E1,7.790100403E0,-3.079845428E0,2.235750732E0,8.670045760E0
1.543518133E1,7.749983826E0,-3.104843445E0,2.265838165E0,8.650799079E0
1.544524833E1,7.672445068E0,-3.034040680E0,2.345023499E0,8.577351070E0
1.545531533E1,7.588170319E0,-2.874023438E0,2.471211090E0,8.482170934E0
1.546538133E1,7.519313507E0,-2.651436310E0,2.631976776E0,8.396278454E0
1.547544833E1,7.458539886E0,-2.446961517E0,2.767295380E0,8.323182181E0
1.548551433E1,7.358248444E0,-2.314337311E0,2.893782349E0,8.238565022E0
1.549558133E1,7.329508209E0,-2.299218750E0,2.976111145E0,8.238041940E0
1.550564733E1,7.222331085E0,-2.386786652E0,3.074306946E0,8.204278154E0
1.551571433E1,7.199578400E0,-2.553988953E0,3.188968506E0,8.278061901E0
1.552578033E1,7.054380341E0,-2.734513550E0,3.305576019E0,8.256432593E0
1.553584733E1,6.917265472E0,-2.856659546E0,3.371139679E0,8.208145230E0
1.554591333E1,6.932982788E0,-3.024161224E0,3.372636566E0,8.281695410E0
1.555598033E1,7.015910339E0,-3.190315704E0,3.354973297E0,8.405769329E0
1.556604733E1,7.197183380E0,-3.346141663E0,3.290008392E0,8.591872197E0
1.557611333E1,7.564968567E0,-3.503015442E0,3.198847961E0,8.929305398E0
1.558618033E1,8.103398895E0,-3.704795837E0,3.075504456E0,9.425991381E0
1.559624633E1,8.679850159E0,-3.913761292E0,3.012784882E0,9.986701105E0
1.560631333E1,9.121431885E0,-4.039050751E0,3.046165466E0,1.043041584E1
1.561637933E1,9.383686523E0,-4.094435577E0,3.047812042E0,1.068209407E1
1.562644633E1,9.506880341E0,-4.094734955E0,3.029849396E0,1.078552806E1
1.563651233E1,9.785600739E0,-4.067790985E0,2.971470795E0,1.100611394E1
1.564657933E1,1.036564453E1,-4.205055542E0,2.870430908E0,1.154852598E1
1.565664533E1,1.097442856E1,-4.518204346E0,2.805316315E0,1.219516512E1
1.566671233E1,1.132889145E1,-4.809947662E0,2.736010437E0,1.260813749E1
1.567677833E1,1.145852188E1,-4.972659302E0,2.786305847E0,1.279799064E1
1.568684533E1,1.162991547E1,-4.983436890E0,3.009940796E0,1.300574183E1
1.569691233E1,1.175715088E1,-4.898264008E0,3.222199402E0,1.313796621E1
1.570697833E1,1.166658920E1,-4.628375244E0,3.438499603E0,1.301362519E1
1.571704533E1,1.122740250E1,-4.103865967E0,3.616329803E0,1.248896008E1
1.572711133E1,1.063942520E1,-3.476370850E0,3.686833191E0,1.178453486E1
1.573717833E1,1.015862503E1,-2.873274994E0,3.586392059E0,1.114968967E1
1.574724433E1,9.733808441E0,-2.414928131E0,3.585643616E0,1.065062180E1
1.575731133E1,9.503886566E0,-2.076781311E0,3.801195374E0,1.044442276E1
1.576737733E1,9.351653137E0,-1.856738892E0,4.098926239E0,1.037796184E1
1.577744433E1,9.192983093E0,-1.758094025E0,4.471651154E0,1.037292132E1
1.578751033E1,9.202712860E0,-1.747615814E0,4.818779297E0,1.053397925E1
1.579757733E1,9.358838196E0,-1.785337372E0,5.064717865E0,1.079011812E1
1.580764433E1,9.524693298E0,-1.885179749E0,5.097649384E0,1.096629903E1
1.581771033E1,9.548344116E0,-2.020648041E0,4.752467194E0,1.085540595E1
1.582777733E1,9.562714233E0,-2.176324310E0,4.191882935E0,1.066554141E1
1.583784333E1,9.555229797E0,-2.293231201E0,3.660038910E0,1.048604838E1
1.584791033E1,9.476044464E0,-2.294428711E0,3.153342590E0,1.024711624E1
1.585797633E1,9.367669830E0,-2.246079254E0,2.764151917E0,1.002190830E1
1.586804333E1,9.299711151E0,-2.188449097E0,2.564018097E0,9.891821154E0
1.587810933E1,9.294172668E0,-2.146087189E0,2.464924164E0,9.852065111E0
1.588817633E1,9.269623718E0,-2.135758667E0,2.401755524E0,9.811004972E0
1.589824233E1,9.145082703E0,-2.158211975E0,2.332599335E0,9.681499689E0
1.590830933E1,8.950637054E0,-2.175725555E0,2.317630463E0,9.498373352E0
1.591837533E1,8.660540314E0,-2.181413727E0,2.381397858E0,9.243082826E0
1.592844233E1,8.297994232E0,-2.176923065E0,2.532284088E0,8.944728336E0
1.593850933E1,7.943531342E0,-2.160606995E0,2.778372345E0,8.688340788E0
1.594857533E1,7.573650513E0,-2.121089172E0,3.021317139E0,8.425411481E0
1.595864233E1,7.345674591E0,-2.087708588E0,3.196602631E0,8.278630969E0
1.596870833E1,7.070995789E0,-2.048939209E0,3.354075165E0,8.089929143E0
1.597877533E1,6.982679443E0,-2.088606720E0,3.494034119E0,8.082596406E0
1.598884133E1,6.953041077E0,-2.146236877E0,3.598516846E0,8.117908378E0
1.599890833E1,6.942862244E0,-2.197131042E0,3.643722839E0,8.142937866E0
1.600897433E1,7.000492401E0,-2.258653107E0,3.554807739E0,8.169765344E0
1.601904133E1,7.015760651E0,-2.286195831E0,3.410657501E0,8.128971243E0
1.602910733E1,7.072492676E0,-2.306104431E0,3.227438507E0,8.108922839E0
1.603917433E1,7.210206299E0,-2.260449371E0,3.070115662E0,8.156121407E0
1.604924133E1,7.297325134E0,-2.181264038E0,2.907404022E0,8.152414677E0
1.605930733E1,7.399263153E0,-2.117945709E0,2.806962891E0,8.192303089E0
1.606937433E1,7.502398682E0,-2.096390533E0,2.815944214E0,8.283138358E0
1.607944033E1,7.622299347E0,-2.074685669E0,2.868634644E0,8.404334160E0
1.608950733E1,7.821235657E0,-2.051783295E0,2.970722351E0,8.614333008E0
1.609957333E1,8.055947571E0,-1.960173798E0,3.045566711E0,8.832669425E0
1.610964033E1,8.297395477E0,-1.877246246E0,3.106040955E0,9.056396391E0
1.611970633E1,8.493936768E0,-1.782792664E0,3.129691772E0,9.226065363E0
1.612977333E1,8.575217743E0,-1.685644684E0,3.132086792E0,9.283626716E0
1.613983933E1,8.648415527E0,-1.575174408E0,3.149600372E0,9.337893127E0
1.614990633E1,8.733289032E0,-1.457968140E0,3.196602631E0,9.413515645E0
1.615997333E1,8.810229034E0,-1.333876190E0,3.266956329E0,9.490646184E0
1.617003933E1,8.904832306E0,-1.163829803E0,3.326682129E0,9.576917677E0
1.618010633E1,9.085506592E0,-9.656419373E-1,3.370241547E0,9.738450722E0
1.619017233E1,9.265881500E0,-8.482859802E-1,3.347339172E0,9.888418914E0
1.620023933E1,9.486372986E0,-8.539741516E-1,3.281476135E0,1.007415654E1
1.621030533E1,9.660610657E0,-9.590556335E-1,3.233426056E0,1.023241076E1
1.622037233E1,9.677226105E0,-1.178499298E0,3.209924927E0,1.026358532E1
1.623043833E1,9.689949646E0,-1.509760437E0,3.184477844E0,1.031093594E1
1.624050533E1,9.744436340E0,-1.849404144E0,3.189716949E0,1.041866736E1
1.625057133E1,9.784552917E0,-2.154469757E0,3.262765045E0,1.053683309E1
1.626063833E1,9.861941986E0,-2.427651672E0,3.375181274E0,1.070248761E1
1.627070433E1,9.989327087E0,-2.593955841E0,3.510050812E0,1.090117972E1
1.628077133E1,1.009740234E1,-2.726879425E0,3.641178131E0,1.107481755E1
1.629083833E1,1.027223877E1,-2.795586548E0,3.777843933E0,1.129629578E1
1.630090433E1,1.050874695E1,-2.830314331E0,3.922742615E0,1.156859331E1
1.631097133E1,1.079420334E1,-2.840942230E0,3.999083862E0,1.185657835E1
1.632103733E1,1.115510284E1,-2.881956940E0,4.045337677E0,1.221092757E1
1.633110433E1,1.148726212E1,-2.986439667E0,4.027524719E0,1.253383294E1
1.634117033E1,1.170670578E1,-3.132236481E0,4.008214874E0,1.276415497E1
1.635123733E1,1.175041489E1,-3.191064148E0,4.017196198E0,1.282158359E1
1.636130333E1,1.172841064E1,-3.197351074E0,4.030219116E0,1.280708149E1
1.637137033E1,1.163695084E1,-3.207679596E0,4.093687134E0,1.274621934E1
1.638143633E1,1.147917892E1,-3.223546600E0,4.153263245E0,1.262586223E1
1.639150333E1,1.121901993E1,-3.205883331E0,4.250111847E0,1.241803313E1
1.640156983E1,1.095167587E1,-3.099903717E0,4.317920837E0,1.217345669E1
1.641163583E1,1.061697189E1,-2.938539276E0,4.408033447E0,1.186532191E1
1.642170283E1,1.030636780E1,-2.718796234E0,4.497846680E0,1.156908358E1
1.643176883E1,1.007899063E1,-2.452500000E0,4.525688782E0,1.131736132E1
1.644183583E1,9.911638641E0,-2.209704895E0,4.497996368E0,1.110654526E1
1.645190183E1,9.806108093E0,-1.968256989E0,4.380939789E0,1.091908535E1
1.646196883E1,9.721234589E0,-1.806443481E0,4.198020172E0,1.074192782E1
1.647203483E1,9.700278168E0,-1.781445465E0,4.058959351E0,1.066508769E1
1.648210183E1,9.647288361E0,-1.877994690E0,3.896696777E0,1.057266677E1
1.649216783E1,9.598639526E0,-2.112706604E0,3.755690002E0,1.052153113E1
1.650223483E1,9.553433533E0,-2.369422760E0,3.650608521E0,1.049805692E1
1.651230183E1,9.511969757E0,-2.632276154E0,3.578159180E0,1.049807933E1
1.652236783E1,9.380992126E0,-2.900368652E0,3.509901123E0,1.042758637E1
1.653243483E1,9.232650604E0,-3.141367493E0,3.445385284E0,1.034314781E1
1.654250083E1,9.104816437E0,-3.339705048E0,3.399580536E0,1.027659768E1
1.655256783E1,8.967551880E0,-3.466341705E0,3.347488861E0,1.018028453E1
1.656263383E1,8.853339386E0,-3.542832642E0,3.282973022E0,1.008519674E1
1.657270083E1,8.792715454E0,-3.554059296E0,3.224594421E0,1.001704506E1
1.658276683E1,8.737480316E0,-3.529660034E0,3.147355042E0,9.935185252E0
1.659283383E1,8.614585876E0,-3.491788788E0,3.119063873E0,9.804704902E0
1.660289983E1,8.442593536E0,-3.386258240E0,3.162922668E0,9.630587225E0
1.661296683E1,8.300838318E0,-3.231330414E0,3.287313995E0,9.494832612E0
1.662303283E1,8.152796173E0,-3.099604340E0,3.409010925E0,9.364666998E0
1.663309983E1,8.088879089E0,-3.061583405E0,3.535348206E0,9.343550974E0
1.664316683E1,7.968679047E0,-3.034639435E0,3.609743500E0,9.259542666E0
1.665323283E1,7.835905151E0,-3.029999084E0,3.623963928E0,9.149613027E0
1.666329983E1,7.696844330E0,-3.026855621E0,3.631747742E0,9.032876577E0
1.667336583E1,7.564519501E0,-2.992876282E0,3.595523071E0,8.894214404E0
1.668343283E1,7.496261444E0,-2.923420715E0,3.542682953E0,8.791525853E0
1.669349883E1,7.494315491E0,-2.888842621E0,3.474424896E0,8.751103057E0
1.670356583E1,7.525301056E0,-2.885699158E0,3.331023102E0,8.720844599E0
1.671363183E1,7.514822845E0,-2.892435150E0,3.172203369E0,8.654572070E0
1.672369883E1,7.505841522E0,-2.912044373E0,2.998265076E0,8.591114762E0
1.673376483E1,7.512278137E0,-2.948119354E0,2.875670013E0,8.567100359E0
1.674383183E1,7.516020355E0,-3.067720642E0,2.846630402E0,8.602602895E0
1.675389883E1,7.527396698E0,-3.189866638E0,2.870281219E0,8.664609887E0
1.676396483E1,7.567812653E0,-3.276686096E0,2.913241882E0,8.746167068E0
1.677403183E1,7.585475922E0,-3.355122986E0,3.004102936E0,8.821617179E0
1.678409783E1,7.579039307E0,-3.395688629E0,3.024310913E0,8.838495040E0
1.679416483E1,7.539072418E0,-3.389102325E0,2.954705658E0,8.778035830E0
1.680423083E1,7.489675140E0,-3.307222595E0,2.864593048E0,8.674032991E0
1.681429783E1,7.396269379E0,-3.227288818E0,2.738704834E0,8.521777867E0
1.682436383E1,7.326813812E0,-3.111729126E0,2.606829071E0,8.376193443E0
1.683443083E1,7.286248169E0,-2.981499939E0,2.497556305E0,8.259330588E0
1.684449683E1,7.266788635E0,-2.909200287E0,2.434537354E0,8.197355397E0
1.685456383E1,7.251221008E0,-2.879112854E0,2.462080078E0,8.181157329E0
1.686463083E1,7.235503693E0,-2.881807251E0,2.519710236E0,8.185735544E0
1.687469683E1,7.237898712E0,-2.904260559E0,2.634671173E0,8.231852729E0
1.688476383E1,7.262148285E0,-2.965034180E0,2.770139465E0,8.318888030E0
1.689482983E1,7.306605835E0,-3.067570953E0,2.844983826E0,8.419644491E0
1.690489683E1,7.389533386E0,-3.242407379E0,2.848127289E0,8.557466817E0
1.691496283E1,7.541018372E0,-3.436853027E0,2.856060791E0,8.765614642E0
1.692502983E1,7.711962891E0,-3.596121826E0,2.855162659E0,8.975434119E0
1.693509583E1,7.959697723E0,-3.711232452E0,2.914439392E0,9.253323248E0
1.694516283E1,8.212521973E0,-3.779191132E0,3.009641418E0,9.528155342E0
1.695522883E1,8.398734741E0,-3.800147552E0,3.072660370E0,9.717052455E0
