"Time (s)","Acceleration x (m/s^2)","Acceleration y (m/s^2)","Acceleration z (m/s^2)","Absolute acceleration (m/s^2)"
7.483583329E-3,-6.131100311E0,3.729943542E0,6.342311096E0,9.577462080E0
1.755058333E-2,-6.330635376E0,3.605552216E0,6.331533508E0,9.652215684E0
2.761658333E-2,-6.475234680E0,3.434458008E0,6.459217987E0,9.769629623E0
3.768358333E-2,-6.559060364E0,3.210673370E0,6.889872437E0,1.003992224E1
4.775058333E-2,-6.468798065E0,3.185226288E0,7.466922455E0,1.038007446E1
5.781758333E-2,-5.743406525E0,3.378025360E0,8.034392395E0,1.043787502E1
6.788458333E-2,-4.641547852E0,3.830085297E0,8.681646423E0,1.056335669E1
7.795158333E-2,-3.798351288E0,4.294419708E0,9.240135040E0,1.087426359E1
8.801858333E-2,-3.354224854E0,3.969146118E0,9.307794342E0,1.066020548E1
9.808458333E-2,-3.575315094E0,3.521277466E0,9.051976318E0,1.034990571E1
1.081515833E-1,-4.160448303E0,3.501668243E0,8.530311127E0,1.011618597E1
1.182185833E-1,-4.071233826E0,3.812272339E0,7.808362427E0,9.595774541E0
1.282855833E-1,-3.759731598E0,3.984713745E0,7.673642578E0,9.428590337E0
1.383525833E-1,-3.761677551E0,3.666475525E0,7.668553162E0,9.295158329E0
1.484195833E-1,-3.866609344E0,3.384312286E0,7.917784882E0,9.439044173E0
1.584855833E-1,-3.759881287E0,3.257226562E0,8.097561035E0,9.503511293E0
1.685525833E-1,-3.553610229E0,3.267555084E0,7.963739319E0,9.312690580E0
1.786195833E-1,-3.201242981E0,3.169059906E0,7.607330475E0,8.840948720E0
1.886865833E-1,-2.641706543E0,3.171155548E0,7.108717346E0,8.220018448E0
1.987535833E-1,-2.345322876E0,3.227737885E0,6.640640717E0,7.747060111E0
2.088205833E-1,-2.513273621E0,3.230731659E0,6.689439240E0,7.842370093E0
2.188875833E-1,-2.684667206E0,3.031346283E0,7.097640381E0,8.171474608E0
2.289535833E-1,-2.554737396E0,2.521057434E0,7.686066742E0,8.482808244E0
2.390205833E-1,-2.009870453E0,1.940115509E0,8.235873413E0,8.696737222E0
2.490875833E-1,-9.758207703E-1,1.353934479E0,8.685089264E0,8.843988934E0
2.591545833E-1,-2.830613708E-1,9.024732971E-1,9.021140442E0,9.070587449E0
2.692215833E-1,3.487747192E-2,8.416996765E-1,9.187145233E0,9.225687634E0
2.792885833E-1,-8.547225952E-2,1.141376495E0,9.325607300E0,9.395583927E0
2.893555833E-1,-1.826202393E-1,1.462907867E0,9.186995544E0,9.304533127E0
2.994215833E-1,6.616241455E-2,1.803300018E0,8.806486816E0,8.989464860E0
3.094885833E-1,4.252656555E-1,1.982028351E0,8.509354706E0,8.747479910E0
3.195555833E-1,8.589138794E-1,1.895208893E0,8.503516846E0,8.754390244E0
3.296227083E-1,1.472338257E0,1.690434723E0,8.706195374E0,8.990171710E0
3.396897083E-1,2.204615479E0,1.460961914E0,8.759334869E0,9.149900900E0
3.497567083E-1,3.131637726E0,1.217118988E0,8.483009491E0,9.124142891E0
3.598237083E-1,3.599864044E0,1.019529877E0,8.026159515E0,8.855376834E0
3.698897083E-1,2.789748688E0,6.981481934E-1,7.832462311E0,8.343714670E0
3.799567083E-1,1.795965271E0,3.553610229E-1,8.134234772E0,8.337718395E0
3.900237083E-1,1.291065216E0,4.996609497E-1,8.375383301E0,8.489025615E0
4.000907083E-1,7.493417358E-1,1.215472412E-1,8.714727631E0,8.747729102E0
4.101577083E-1,7.719447327E-1,-4.550537109E-1,8.515491943E0,8.562509888E0
4.202247083E-1,-1.504371643E-1,-7.336244202E-1,7.883356476E0,7.918847483E0
4.302917083E-1,-3.696263580E0,3.697311401E-2,6.160888367E0,7.184725251E0
4.403577083E-1,-2.582429810E0,-9.565109253E-2,6.043382721E0,6.572713866E0
4.504247083E-1,2.151026917E-1,-9.129515076E-1,5.868097229E0,5.942584851E0
4.604917083E-1,6.029461670E-1,-8.693920898E-1,5.471871185E0,5.573218187E0
4.705587083E-1,1.482816467E0,-1.239123230E0,6.061794434E0,6.362351987E0
4.806257083E-1,2.477947083E0,-1.658251648E0,7.360793152E0,7.941743895E0
4.906927083E-1,3.699107666E0,-1.877395935E0,8.240064697E0,9.225328137E0
5.007597083E-1,4.259542236E0,-2.047142944E0,8.114326172E0,9.390249385E0
5.108257083E-1,4.220174103E0,-2.239193573E0,7.742798767E0,9.098065182E0
5.208927083E-1,3.882626038E0,-2.512525177E0,7.730075226E0,9.007864936E0
5.309597083E-1,3.521726532E0,-2.860252075E0,7.679181061E0,8.919272474E0
5.410267083E-1,3.923191681E0,-2.963836670E0,7.601941681E0,9.053467738E0
5.510937083E-1,4.677173767E0,-2.607577515E0,7.501799927E0,9.216963550E0
5.611607083E-1,5.453908539E0,-2.284698944E0,7.736661530E0,9.737602335E0
5.712267083E-1,6.353537750E0,-2.183209991E0,8.536747742E0,1.086323662E1
5.812937083E-1,6.990014191E0,-2.235601044E0,9.319470062E0,1.186215548E1
5.913607083E-1,7.090754700E0,-2.178270264E0,9.666298828E0,1.218445717E1
6.014277083E-1,7.647596741E0,-2.079625397E0,9.561516724E0,1.241906517E1
6.114947083E-1,8.912466431E0,-1.618284760E0,9.251212006E0,1.294742550E1
6.215617083E-1,1.047401917E1,-7.961943054E-1,9.012308807E0,1.384054597E1
6.316287083E-1,1.143636795E1,-1.493893433E-1,8.685987396E0,1.436172713E1
6.416947083E-1,1.158605667E1,2.409988403E-1,8.104746094E0,1.414148857E1
6.517617083E-1,1.154848480E1,3.966751099E-1,7.546706543E0,1.380136341E1
6.618287083E-1,1.183214493E1,4.689747620E-1,7.461833038E0,1.399637607E1
6.718957083E-1,1.242042160E1,6.643185425E-1,7.734865265E0,1.464705884E1
6.819627083E-1,1.309671524E1,1.013841705E0,8.037386169E0,1.539972083E1
6.920297083E-1,1.374546616E1,1.414857788E0,8.186925201E0,1.606130152E1
7.020967083E-1,1.478729965E1,2.183659058E0,8.461903381E0,1.717662385E1
7.121637083E-1,1.567225937E1,2.920726318E0,8.407117310E0,1.802304018E1
7.222297083E-1,1.606264755E1,3.363804932E0,8.218359833E0,1.835388973E1
7.322967083E-1,1.595966171E1,3.394042053E0,8.099956055E0,1.821646540E1
7.423637083E-1,1.566163147E1,3.109184418E0,8.070617065E0,1.789101975E1
7.524307083E-1,1.533022064E1,2.928659821E0,7.955057373E0,1.751786662E1
7.624977083E-1,1.504386612E1,2.945874023E0,7.555987244E0,1.709061218E1
7.725647083E-1,1.484552856E1,3.088677063E0,7.116501160E0,1.675035024E1
7.826317083E-1,1.481574051E1,3.308120728E0,6.690936127E0,1.658970934E1
7.926977083E-1,1.503713013E1,3.489244080E0,6.393504639E0,1.670829160E1
8.027647083E-1,1.510868134E1,3.532055054E0,6.354585571E0,1.676688470E1
8.128317083E-1,1.474823090E1,3.443738708E0,6.413562927E0,1.644698879E1
8.228987083E-1,1.412552582E1,3.315455475E0,6.560706940E0,1.592374328E1
8.329657083E-1,1.327065353E1,3.078947296E0,6.500532074E0,1.509460430E1
8.430327083E-1,1.227836700E1,2.760858765E0,6.314169617E0,1.408010566E1
8.530997083E-1,1.150612289E1,2.684816895E0,6.111640778E0,1.330230276E1
8.631657083E-1,1.073417816E1,2.775977325E0,5.098397827E0,1.220337213E1
8.732327083E-1,1.015188904E1,2.837948456E0,4.146826630E0,1.132744338E1
8.832997083E-1,9.442663879E0,3.076402588E0,3.353027344E0,1.048193429E1
8.933667083E-1,7.980654144E0,3.235072632E0,1.915416870E0,8.821868129E0
9.034337083E-1,7.735014954E0,2.413431244E0,6.740483093E-1,8.130771662E0
9.135007083E-1,8.622369690E0,2.058968353E0,2.866838379E0,9.316832726E0
9.235677083E-1,7.709418182E0,1.445094910E0,4.324656830E0,8.956901512E0
9.336337083E-1,6.885232086E0,9.865983582E-1,4.436773682E0,8.250136841E0
9.437007083E-1,6.314618683E0,8.408015442E-1,7.131769409E0,9.562609019E0
9.537677083E-1,4.687053223E0,2.029779053E-1,6.739884338E0,8.211924795E0
9.638347083E-1,3.081641693E0,-1.196012878E-1,2.191891937E0,3.783544668E0
9.739017083E-1,2.579436035E0,2.290237427E-1,-1.029259644E0,2.786631936E0
9.839687083E-1,4.557871857E0,6.864724731E-1,-4.739144897E-1,4.633576940E0
9.940357083E-1,7.598199463E0,1.895957336E0,2.806813202E0,8.318983691E0
1.004101708E0,9.126521301E0,3.344046021E0,6.430926819E0,1.165473529E1
1.014168708E0,6.746171265E0,3.373385010E0,7.473957825E0,1.061840848E1
1.024235708E0,3.002905426E0,1.347048798E0,4.341871033E0,5.448286476E0
1.034302708E0,2.252366180E0,-4.569996643E-1,-6.313870239E-1,2.383411773E0
1.044369708E0,3.601660309E0,4.270619202E-1,-1.787433014E0,4.043421279E0
1.054436708E0,4.485572205E0,1.420545959E0,-8.951385498E-1,4.789528353E0
1.064503708E0,6.201603699E0,1.216071167E0,1.424288177E0,6.478218454E0
1.074569708E0,7.031477966E0,5.360353088E-1,1.798659668E0,7.277650228E0
1.084636708E0,6.988966370E0,8.214916992E-1,1.347048798E0,7.164847520E0
1.094703708E0,6.778653717E0,9.442364502E-1,1.325044556E0,6.971188691E0
1.104770708E0,6.869365082E0,7.039860535E-1,8.984317017E-1,6.963544537E0
1.114837708E0,7.111262054E0,1.387614441E0,1.166075134E0,7.338613838E0
1.124904708E0,6.572831726E0,1.415306854E0,1.381926270E0,6.864031658E0
1.134971708E0,6.789880371E0,7.586224365E-1,2.026635590E0,7.126376026E0
1.145037708E0,6.766977997E0,3.375480652E-1,2.669099579E0,7.282171549E0
1.155104708E0,7.340136108E0,-1.502874756E-1,3.386407928E0,8.085044408E0
1.165171708E0,8.446335754E0,-4.589456177E-1,3.596720581E0,9.191714622E0
1.175238708E0,9.100924530E0,-2.649490356E-2,3.602857819E0,9.788161918E0
1.185305708E0,9.727970581E0,3.363505554E-1,3.844605103E0,1.046554020E1
1.195372708E0,9.992171173E0,3.278182983E-1,2.893033905E0,1.040771804E1
1.205439708E0,9.689051514E0,1.058299255E-1,1.688638458E0,9.835670747E0
1.215506708E0,1.026714935E1,-6.697073364E-1,4.888833618E-1,1.030057623E1
1.225572708E0,1.053239777E1,-1.294358368E0,1.429527283E-1,1.061259637E1
1.235639708E0,9.707313538E0,-1.708097992E0,5.957611084E-2,9.856626410E0
1.245706708E0,7.940387878E0,-2.458936615E0,2.122586060E-1,8.315117717E0
1.255773708E0,7.670648804E0,-2.974614258E0,2.062261505E0,8.481751327E0
1.265840708E0,1.194994995E1,-4.459077301E0,2.784808960E0,1.305526082E1
1.275907708E0,1.606100098E1,-4.366270294E0,3.429368591E0,1.699354694E1
1.285974708E0,1.716495529E1,-2.194736023E0,1.203197937E0,1.734647635E1
1.296040708E0,1.523726395E1,-2.499352570E0,-1.496887207E0,1.551327326E1
1.306107708E0,1.358215576E1,-4.332889709E0,-3.788322144E0,1.475128039E1
1.316174708E0,1.132335297E1,-4.482428741E0,-5.200784912E0,1.324230545E1
1.326241542E0,9.942923584E0,-5.529351654E0,-4.009562073E0,1.206283744E1
1.336308542E0,1.011970596E1,-7.192393341E0,-3.113525391E-2,1.241531072E1
1.346375542E0,8.146060181E0,-8.509205017E0,3.851490784E-1,1.178614468E1
1.356442542E0,4.944218445E-1,-1.048315018E1,7.694000244E-1,1.052296854E1
1.366508542E0,-2.806663513E0,-1.026759842E1,4.951553192E0,1.173962590E1
1.376575542E0,1.223480759E1,-9.697733459E0,1.850901031E0,1.572139897E1
1.386642542E0,1.827429840E1,-5.045857086E0,1.670376434E0,1.903157411E1
1.396709542E0,1.640573410E1,-5.162763977E-1,1.641636200E0,1.649574558E1
1.406776542E0,1.107322311E1,-4.178410950E0,-9.156459045E-1,1.187071167E1
1.416843542E0,4.931045837E0,-8.917256470E0,1.872605896E-1,1.019155251E1
1.426910542E0,1.641785889E0,-1.012674133E1,1.426234131E0,1.035762978E1
1.436977542E0,3.293301544E0,-8.272996216E0,1.954335938E0,9.116344136E0
1.447043542E0,5.584886169E0,-5.067711639E0,5.828878784E-1,7.563888753E0
1.457110542E0,7.231013031E0,-4.136348419E0,5.658233643E-1,8.349675669E0
1.467177542E0,9.603878632E0,-4.626429291E0,6.671626282E-1,1.068098491E1
1.477244542E0,9.755812683E0,-5.227429504E0,8.168513489E-1,1.109815960E1
1.487311542E0,8.861123199E0,-5.226980438E0,-3.911366272E-1,1.029532985E1
1.497378542E0,9.357640686E0,-5.091212769E0,-9.645941162E-1,1.069655685E1
1.507445542E0,8.699609070E0,-6.755451965E0,-2.754122772E0,1.135361271E1
1.517511542E0,6.897057495E0,-8.357420654E0,-4.464017029E0,1.171935707E1
1.527578542E0,7.722141724E0,-7.136858826E0,-4.165837097E0,1.131019122E1
1.537645542E0,9.166787567E0,-1.634900208E0,-3.535048828E0,9.959892731E0
1.547712542E0,9.699529724E0,7.322772217E-1,3.647465057E0,1.038850847E1
1.557779542E0,6.762487335E0,-4.212090912E0,1.927841034E0,8.196921121E0
1.567846542E0,2.217189331E0,-6.264622650E0,6.706054688E-2,6.645744698E0
1.577913542E0,1.207987976E-1,-3.849395142E0,9.198371887E-1,3.959613082E0
1.587980542E0,-2.521356812E0,-4.907095642E0,-6.285429382E-1,5.552647480E0
1.598046542E0,-3.643573151E0,-6.594985657E0,-1.943857727E0,7.781262364E0
1.608113542E0,-2.769091644E0,-6.592291260E0,-2.826871490E0,7.688782414E0
1.618180542E0,-9.897418213E-1,-4.675078125E0,-3.560346222E0,5.959195379E0
1.628247542E0,3.832031250E-2,-4.434528351E0,-4.174369354E0,6.090309487E0
1.638314542E0,2.790197754E-1,-4.049978027E0,-3.929328918E0,5.649761040E0
1.648381542E0,1.948947144E-1,-3.157833252E0,-3.087180176E0,4.420472399E0
1.658448542E0,2.725831604E-1,-3.454216919E0,-2.397115173E0,4.213321404E0
1.668514542E0,-2.624043274E-1,-3.345991974E0,-3.713627472E0,5.005551650E0
1.678581542E0,-8.340655518E-1,-3.881727905E0,-3.664379883E0,5.402884119E0
1.688648542E0,-8.833131409E-1,-4.148024139E0,-1.862277374E0,4.631891988E0
1.698715542E0,-1.622176666E0,-4.380490723E0,-1.499731293E0,4.906052390E0
1.708782542E0,-4.597539368E0,-9.448801117E0,-1.383123779E0,1.059859624E1
1.718849542E0,-2.255958710E0,-2.433489532E1,2.189945984E-1,2.444022174E1
1.728916542E0,-1.808539124E0,-4.829616760E1,2.113604736E0,4.837621258E1
1.738983542E0,2.834056549E0,-5.305896332E1,-1.057101746E0,5.314511200E1
1.749049542E0,8.042625275E0,-2.759361877E1,-6.349945221E0,2.943490144E1
1.759116542E0,4.969815216E0,-1.245799347E1,-5.005590820E0,1.431630553E1
1.769183542E0,1.087638245E0,-5.876030731E0,-2.157912598E0,6.353525075E0
1.779250542E0,4.519102478E-1,-2.830763397E0,-8.340655518E-1,2.985483148E0
1.789317542E0,1.089135132E0,-1.823058929E0,-3.372486877E-1,2.150231586E0
1.799384542E0,1.206940155E0,-2.355202332E0,-7.295828247E-1,2.745172792E0
1.809451542E0,7.643106079E-1,-3.907025299E0,-1.652862854E0,4.310565277E0
1.819517542E0,4.474195862E-1,-5.494773560E0,-2.528691559E0,6.065228912E0
1.829584542E0,3.109034729E-1,-6.217021637E0,-3.771706696E0,7.278309584E0
1.839651542E0,5.809419250E-1,-5.873486023E0,-4.626578979E0,7.499370949E0
1.849718542E0,6.993457031E-1,-5.935157776E0,-5.008584595E0,7.797506132E0
1.859785542E0,3.480262756E-1,-6.912325745E0,-4.955594788E0,8.512302226E0
1.869852542E0,-2.773731995E-1,-7.919431458E0,-4.697531433E0,9.212010208E0
1.879919542E0,-6.632707214E-1,-8.343349915E0,-4.699627075E0,9.598849436E0
1.889986542E0,-3.418890381E-1,-8.463849335E0,-5.145250397E0,9.910965408E0
1.900052542E0,8.966354370E-2,-8.772657166E0,-6.026168518E0,1.064341394E1
1.910119542E0,2.152523804E-1,-8.966803436E0,-6.823111267E0,1.126963818E1
1.920186542E0,1.649569702E-1,-9.144483948E0,-7.284601593E0,1.169248553E1
1.930253542E0,2.155517578E-1,-9.365125122E0,-7.642357635E0,1.208956829E1
1.940320542E0,7.394622803E-1,-1.026759842E1,-7.608228607E0,1.280060640E1
1.950387542E0,1.328487396E0,-1.134430939E1,-7.552544403E0,1.369303331E1
1.960454542E0,1.650018768E0,-1.152902527E1,-8.192164307E0,1.423912011E1
1.970521542E0,1.826501770E0,-1.108744354E1,-9.066795502E0,1.443863891E1
1.980587542E0,1.779798889E0,-1.049422714E1,-9.494905243E0,1.426357995E1
1.990654542E0,1.439706116E0,-9.729467468E0,-9.061556396E0,1.337337262E1
2.000721542E0,9.241781616E-1,-9.164691925E0,-8.068970490E0,1.224556933E1
2.010788542E0,6.301895142E-1,-9.233848114E0,-6.743776245E0,1.145162032E1
2.020855542E0,3.957769775E-1,-1.022867935E1,-5.646258545E0,1.169028470E1
2.030922542E0,6.779402161E-1,-1.073462723E1,-4.364474030E0,1.160777577E1
2.040989542E0,9.936337280E-1,-1.112262039E1,-3.652704163E0,1.174913784E1
2.051055542E0,1.098116455E0,-1.151330795E1,-3.405568085E0,1.205653407E1
2.061122542E0,7.702981567E-1,-1.208960953E1,-2.809956665E0,1.243574985E1
2.071189542E0,4.147874451E-1,-1.305106018E1,-2.237097931E0,1.324789899E1
2.081256542E0,-5.897735596E-2,-1.384905075E1,-1.626966705E0,1.394441486E1
2.091323542E0,-6.236032104E-1,-1.362032639E1,-9.610015869E-1,1.366841965E1
2.101390542E0,-1.360820160E0,-1.246697479E1,-1.013242950E0,1.258188989E1
2.111457542E0,-1.955084381E0,-1.104463257E1,-1.765578461E0,1.135444982E1
2.121524542E0,-2.870281219E0,-9.477092285E0,-2.695744171E0,1.026259368E1
2.131590542E0,-3.086880798E0,-7.852670288E0,-2.838397522E0,8.902233664E0
2.141657542E0,-2.636766815E0,-6.987020416E0,-1.771116943E0,7.675144869E0
2.151724542E0,-2.247127075E0,-6.893614655E0,-3.499722290E-1,7.259062175E0
2.161791542E0,-1.623224487E0,-7.215595093E0,8.243357849E-1,7.441720215E0
2.171858542E0,-8.008346558E-1,-7.755971375E0,1.101858673E0,7.874675907E0
2.181925542E0,9.610015869E-2,-8.531808014E0,1.042282562E0,8.595774320E0
2.191992542E0,1.223705292E0,-9.583520966E0,8.286767578E-1,9.696805345E0
2.202059542E0,2.310744781E0,-1.059167450E1,6.068380737E-1,1.085777890E1
2.212125542E0,3.001857605E0,-1.134176468E1,6.261479187E-1,1.174899299E1
2.222192542E0,3.369044037E0,-1.144145737E1,8.210426331E-1,1.195539692E1
2.232259542E0,3.529360657E0,-1.095122681E1,9.458830261E-1,1.154471524E1
2.242326542E0,3.294049988E0,-9.939780121E0,1.024170227E0,1.052135537E1
2.252393542E0,3.078647919E0,-8.967402191E0,6.551875305E-1,9.503770082E0
2.262460542E0,3.007545776E0,-8.644224243E0,1.092727661E-1,9.153135250E0
2.272527542E0,2.997217255E0,-8.270002441E0,-2.655477905E-1,8.800384496E0
2.282594542E0,3.021616516E0,-7.711214447E0,-3.493734741E-1,8.289454532E0
2.292660542E0,3.252735901E0,-7.748187561E0,-1.285826111E-1,8.404239098E0
2.302727542E0,3.232827301E0,-7.718698883E0,5.595364380E-1,8.387047504E0
2.312794542E0,2.761008453E0,-8.301736450E0,1.510808258E0,8.878318386E0
2.322861542E0,2.325713654E0,-8.889264679E0,2.139500885E0,9.434269159E0
2.332928792E0,1.957479401E0,-9.000333710E0,2.277962952E0,9.488247873E0
2.342995792E0,1.942809906E0,-9.007369080E0,2.093097382E0,9.449246780E0
2.353062792E0,2.088307343E0,-8.924890594E0,1.594933319E0,9.303682710E0
2.363129792E0,2.178719330E0,-8.790170746E0,1.007554779E0,9.112029757E0
2.373195792E0,2.204615479E0,-8.763376465E0,4.748126221E-1,9.048897364E0
2.383262792E0,2.054627380E0,-9.025182037E0,7.559280396E-2,9.256409604E0
2.393329792E0,1.799557800E0,-9.322613525E0,-2.233355713E-1,9.497336995E0
2.403396792E0,1.481020203E0,-9.322164459E0,-6.762936401E-1,9.463273436E0
2.413463792E0,1.190624084E0,-9.104367371E0,-1.517843628E0,9.306499890E0
2.423530792E0,9.782157898E-1,-9.039103088E0,-2.811154175E0,9.516558126E0
2.433597792E0,7.940986633E-1,-9.030570831E0,-4.340972900E0,1.005116152E1
2.443663792E0,8.003855896E-1,-9.145382080E0,-5.009482727E0,1.045818090E1
2.453730792E0,1.167422333E0,-9.349258118E0,-4.535717926E0,1.045677959E1
2.463797792E0,1.619631958E0,-9.369615784E0,-3.722608795E0,1.021130373E1
2.473864792E0,1.953437805E0,-9.184001770E0,-2.927162933E0,9.835145683E0
2.483931792E0,2.072739716E0,-9.014554138E0,-2.107766876E0,9.486891875E0
2.493998792E0,2.082469482E0,-8.806636505E0,-1.257534943E0,9.136461011E0
2.504065792E0,2.142794037E0,-8.474028168E0,-3.993695068E-1,8.749869466E0
2.514132792E0,2.321372681E0,-8.153394928E0,9.684860229E-2,8.477971433E0
2.524198792E0,2.418071594E0,-7.930957489E0,3.670367432E-1,8.299510401E0
2.534265792E0,2.617307281E0,-7.911348267E0,4.930746460E-1,8.347625495E0
2.544332792E0,2.895279236E0,-8.231532440E0,6.080355835E-1,8.747026663E0
2.554399792E0,3.170856171E0,-8.777297516E0,7.616162109E-1,9.363511082E0
2.564466792E0,3.241509247E0,-9.280401306E0,8.476872253E-1,9.866701791E0
2.574533792E0,3.017125854E0,-9.588610382E0,7.321275330E-1,1.007871560E1
2.584600792E0,2.698588257E0,-9.791438599E0,3.135978699E-1,1.016134794E1
2.594667792E0,2.380948792E0,-9.739945679E0,-5.273533630E-1,1.004059563E1
2.604733792E0,2.098336487E0,-9.579629059E0,-1.739233246E0,9.959781182E0
2.614800792E0,2.058369598E0,-9.431586914E0,-3.050656128E0,1.012414045E1
2.624867792E0,2.426005096E0,-9.265282745E0,-4.019740906E0,1.038697656E1
2.634934792E0,3.110381927E0,-9.284293213E0,-4.045337677E0,1.059421225E1
2.645001792E0,3.636088715E0,-9.559421082E0,-3.058889008E0,1.067522714E1
2.655068792E0,4.023782501E0,-1.013706985E1,-1.488953705E0,1.100763344E1
2.665135792E0,4.455035706E0,-1.071322174E1,-9.026229858E-2,1.160295697E1
2.675202792E0,4.894222412E0,-1.113414642E1,9.024732971E-1,1.219578155E1
2.685268792E0,5.179828491E0,-1.130703690E1,1.524579620E0,1.253012568E1
2.695335792E0,5.010829926E0,-1.137873779E1,1.628313904E0,1.253935790E1
2.705402792E0,4.420008545E0,-1.165401535E1,1.073417816E0,1.251018685E1
2.715469792E0,3.657793579E0,-1.235695358E1,-2.243833923E-1,1.288891398E1
2.725536792E0,3.264112244E0,-1.317305649E1,-2.114502869E0,1.373517267E1
2.735603792E0,2.667153625E0,-1.354308701E1,-3.900139618E0,1.434363982E1
2.745670792E0,2.032623138E0,-1.331436264E1,-5.281916199E0,1.446728890E1
2.755737792E0,2.423310699E0,-1.279314651E1,-5.170996857E0,1.400986228E1
2.765804792E0,3.221301270E0,-1.268522095E1,-2.992427216E0,1.342558129E1
2.775870792E0,3.699407043E0,-1.256636810E1,-8.122109985E-1,1.312474405E1
2.785937792E0,4.021537170E0,-1.201192108E1,5.031037903E-1,1.267722851E1
2.796004792E0,3.983516235E0,-1.104523132E1,1.300196228E0,1.181338422E1
2.806071792E0,3.959416351E0,-9.992919617E0,1.537901917E0,1.085820255E1
2.816138792E0,4.086352386E0,-9.020541687E0,1.403331757E0,1.000188923E1
2.826205792E0,3.773652649E0,-8.162376251E0,1.333427124E0,9.090812300E0
2.836272792E0,2.843037872E0,-7.587721252E0,1.109043732E0,8.178407923E0
2.846338792E0,1.933379517E0,-7.522157593E0,7.460485840E-1,7.802397048E0
2.856405792E0,1.468446350E0,-7.984246674E0,7.497908020E-1,8.152712179E0
2.866472792E0,1.940414886E0,-9.007818146E0,1.068927155E0,9.276238620E0
2.876539792E0,3.021915894E0,-1.063942520E1,1.561702423E0,1.116997130E1
2.886606792E0,3.539539490E0,-1.253972351E1,1.636846161E0,1.313210839E1
2.896673792E0,3.425626373E0,-1.359233459E1,1.422042847E0,1.408931090E1
2.906740792E0,3.331472168E0,-1.343426331E1,8.192463684E-1,1.386539945E1
2.916807792E0,3.293151855E0,-1.285392014E1,-3.793112183E-1,1.327448639E1
2.926873792E0,3.119363251E0,-1.195578781E1,-1.251248016E0,1.241921539E1
2.936940792E0,2.482587433E0,-1.080782501E1,-1.096020813E0,1.114332013E1
2.947007792E0,2.097138977E0,-1.012269974E1,-7.132667542E-1,1.036222907E1
2.957074792E0,1.998045044E0,-9.518855438E0,-5.310955811E-1,9.740783098E0
2.967141792E0,1.896556091E0,-9.217681732E0,-9.234297180E-1,9.455966580E0
2.977208792E0,2.051633606E0,-9.360634460E0,-1.116079102E0,9.647606466E0
2.987275792E0,1.879940643E0,-9.335935822E0,-9.038204956E-1,9.566125965E0
2.997342792E0,1.573228455E0,-9.103319550E0,-5.755531311E-1,9.256172859E0
3.007409792E0,1.376687164E0,-8.761131134E0,-4.171824646E-1,8.878441727E0
3.017475792E0,1.140927429E0,-8.507109375E0,-1.315763855E-1,8.584284342E0
3.027542792E0,1.240470428E0,-8.137228546E0,1.363664246E-1,8.232366069E0
3.037609792E0,1.599873047E0,-7.809110870E0,4.396357727E-1,7.983425704E0
3.047676792E0,1.988764343E0,-7.582482147E0,7.559280396E-1,7.875318808E0
3.057743792E0,2.041754150E0,-7.651338959E0,1.245410156E-1,7.920054188E0
3.067810792E0,2.251767426E0,-7.888445892E0,-9.406439209E-1,8.257290483E0
3.077877792E0,2.689906311E0,-8.193361816E0,-2.087858276E0,8.872763155E0
3.087944792E0,2.830464020E0,-8.316405945E0,-2.471959534E0,9.126046151E0
3.098010792E0,3.235372009E0,-8.324339447E0,-2.078427887E0,9.169630404E0
3.108077792E0,3.338956604E0,-8.378227386E0,-1.582209778E0,9.156785087E0
3.118144792E0,2.698887634E0,-8.124205627E0,-1.370699615E0,8.669805590E0
3.128211792E0,1.809437256E0,-7.518714752E0,-1.143472137E0,7.817458873E0
3.138278792E0,8.208929443E-1,-6.935826874E0,-9.854008484E-1,7.053408714E0
3.148345792E0,-8.457412720E-2,-6.609804840E0,-9.343569946E-1,6.676053909E0
3.158412792E0,-6.568341064E-1,-6.271208954E0,-1.442101135E0,6.468318829E0
3.168479792E0,-1.112935638E0,-5.776787109E0,-2.015408936E0,6.218662896E0
3.178545792E0,-1.110091553E0,-5.428611145E0,-2.452200623E0,6.059324229E0
3.188612792E0,-9.557624817E-1,-5.489534454E0,-2.719245300E0,6.200223016E0
3.198679792E0,-6.397695923E-1,-5.775290222E0,-3.059188385E0,6.566727941E0
3.208746792E0,-1.519340515E-1,-5.860762482E0,-3.326233063E0,6.740582112E0
3.218813792E0,-3.143463135E-3,-5.766757965E0,-3.385210419E0,6.686939277E0
3.228880792E0,4.071533203E-2,-5.706134033E0,-3.578159180E0,6.735343084E0
3.238947792E0,5.718109131E-2,-5.856122131E0,-3.739822998E0,6.948648225E0
3.249014792E0,-1.752854919E-1,-6.115532684E0,-3.669469299E0,7.134106108E0
3.259080792E0,-5.284011841E-1,-6.315965881E0,-3.581452332E0,7.279933628E0
3.269147792E0,-9.717791748E-1,-6.614145813E0,-4.055815887E0,7.819266085E0
3.279214792E0,-1.610800323E0,-7.281907196E0,-4.889282684E0,8.917731509E0
3.289281792E0,-1.518592072E0,-7.930957489E0,-6.211333466E0,1.018758421E1
3.299348792E0,-7.388635254E-1,-9.031319275E0,-7.694000244E0,1.188731622E1
3.309415792E0,5.164260864E-1,-1.031983978E1,-8.667575684E0,1.348675859E1
3.319482792E0,1.772164764E0,-1.115525253E1,-8.875193939E0,1.436486319E1
3.329550167E0,2.994672546E0,-1.163186142E1,-8.578211517E0,1.475987726E1
3.339616167E0,4.474794617E0,-1.171748337E1,-8.067024536E0,1.491308446E1
3.349683167E0,5.694907379E0,-1.136137390E1,-7.878117371E0,1.495250883E1
3.359750167E0,6.014642487E0,-1.086919739E1,-8.258476410E0,1.491703083E1
3.369817167E0,5.785169678E0,-1.046713348E1,-8.599916382E0,1.473050011E1
3.379884167E0,5.620512085E0,-9.889484711E0,-8.389903107E0,1.413444509E1
3.389951167E0,5.087769928E0,-8.951834564E0,-7.823331299E0,1.293156052E1
3.400018167E0,4.071982269E0,-8.202941895E0,-7.364834747E0,1.175202477E1
3.410085167E0,2.824476471E0,-8.109087067E0,-6.784491577E0,1.094368705E1
3.420151167E0,1.632954254E0,-8.932973785E0,-6.207441559E0,1.099985868E1
3.430218167E0,8.277786255E-1,-1.034109558E1,-5.399571533E0,1.169524895E1
3.440285167E0,7.014413452E-1,-1.160342056E1,-4.378694458E0,1.242193036E1
3.450352167E0,1.129551086E0,-1.232447113E1,-3.395389252E0,1.283343845E1
3.460419167E0,1.619931335E0,-1.273267227E1,-2.784509583E0,1.313387278E1
3.470486167E0,1.867666168E0,-1.327903610E1,-2.626587982E0,1.366455053E1
3.480553167E0,1.616488495E0,-1.386057678E1,-2.318678284E0,1.414584366E1
3.490620167E0,6.656657410E-1,-1.393422363E1,-1.569037170E0,1.403807596E1
3.500687167E0,-4.375401306E-1,-1.321916061E1,-1.485061798E0,1.330951003E1
3.510753167E0,-1.375639343E0,-1.196491882E1,-2.305805054E0,1.226247948E1
3.520820167E0,-2.595452728E0,-1.001746857E1,-2.500550079E0,1.064606979E1
3.530887167E0,-3.572471008E0,-7.931556244E0,-1.182091827E0,8.778922180E0
3.540954167E0,-3.882775726E0,-6.767726440E0,-4.745132446E-2,7.802584196E0
3.551021167E0,-3.776945801E0,-6.505621490E0,6.644682312E-1,7.551817569E0
3.561088167E0,-3.019520874E0,-6.938670959E0,1.101858673E0,7.647009450E0
3.571155167E0,-1.552122345E0,-7.518415375E0,1.207538910E0,7.771345041E0
3.581222167E0,3.691323853E-1,-8.497080231E0,1.211730194E0,8.590979061E0
3.591288167E0,2.481240234E0,-1.004980133E1,1.285077667E0,1.043103468E1
3.601355167E0,4.586612091E0,-1.176089310E1,1.203197937E0,1.268082419E1
3.611422167E0,5.651198273E0,-1.234363129E1,1.104253693E0,1.362059659E1
3.621489167E0,5.516179047E0,-1.177870605E1,1.105600891E0,1.305329464E1
3.631556167E0,4.822222137E0,-1.061936691E1,1.063238983E0,1.171133029E1
3.641623167E0,4.182302856E0,-9.529183960E0,7.432044983E-1,1.043308953E1
3.651690167E0,4.038901062E0,-8.772507477E0,4.520599365E-1,9.668193596E0
3.661757167E0,4.041296082E0,-8.395142212E0,4.052073669E-1,9.326021648E0
3.671823167E0,4.032015381E0,-8.296347656E0,5.908213806E-1,9.243138123E0
3.681890167E0,3.778442688E0,-8.421637115E0,1.019529877E0,9.286551675E0
3.691957167E0,2.917133789E0,-8.294850769E0,1.312770081E0,8.890308437E0
3.702024167E0,2.012415161E0,-8.031697998E0,1.271156616E0,8.376981954E0
3.712091167E0,1.444496155E0,-7.946375427E0,9.020242310E-1,8.126813600E0
3.722158167E0,1.186133423E0,-7.996670837E0,4.836442566E-1,8.098615236E0
3.732225167E0,8.419990540E-1,-8.214318237E0,2.035766602E-1,8.259868641E0
3.742292167E0,3.894900513E-1,-8.531508636E0,-1.068777466E-1,8.541063456E0
3.752359167E0,9.310638428E-2,-8.950038300E0,-6.637197876E-1,8.975097677E0
3.762425167E0,-1.796264648E-2,-9.301208038E0,-1.307830353E0,9.392721323E0
3.772492167E0,1.974394226E-1,-9.431586914E0,-2.040856018E0,9.651886206E0
3.782559167E0,7.279362488E-1,-9.300609283E0,-2.645897827E0,9.697009825E0
3.792626167E0,1.243164825E0,-9.199868774E0,-3.011737061E0,9.759795304E0
3.802693167E0,1.631457367E0,-9.187594299E0,-3.237916718E0,9.877127458E0
3.812760167E0,1.816322937E0,-9.084159393E0,-3.353476410E0,9.852247709E0
3.822827167E0,1.980381775E0,-8.934021606E0,-3.283422089E0,9.722114721E0
3.832894167E0,2.342179413E0,-8.930578766E0,-2.885699158E0,9.673070925E0
3.842960167E0,2.818039856E0,-9.016051025E0,-2.181862793E0,9.694898141E0
3.853027167E0,3.123105469E0,-8.977730713E0,-1.468895416E0,9.618268569E0
3.863094167E0,3.222349091E0,-8.673263855E0,-8.563691711E-1,9.292061543E0
3.873161167E0,3.204236755E0,-8.237969055E0,-2.992277527E-1,8.844252630E0
3.883228167E0,3.150648193E0,-8.015381927E0,3.055146790E-1,8.617788040E0
3.893295167E0,3.104693756E0,-7.978259125E0,8.822653198E-1,8.606400762E0
3.903362167E0,2.869981842E0,-8.133186951E0,1.297651520E0,8.721778787E0
3.913429167E0,2.380200348E0,-8.477471008E0,1.523531799E0,8.936107516E0
3.923496167E0,2.035167847E0,-8.953181763E0,1.441203003E0,9.294000104E0
3.933562167E0,1.848356323E0,-9.428293762E0,1.003812561E0,9.660061285E0
3.943629167E0,1.618434448E0,-9.714947662E0,3.707789612E-1,9.855811239E0
3.953696167E0,1.467248840E0,-9.556726685E0,-5.328918457E-1,9.683378429E0
3.963763167E0,1.571581879E0,-9.229058075E0,-1.643133087E0,9.505012830E0
3.973830167E0,1.831441498E0,-9.050778809E0,-2.654280396E0,9.608120494E0
3.983897167E0,1.995949402E0,-9.183103638E0,-3.161126404E0,9.914934522E0
3.993964167E0,2.199975128E0,-9.495054932E0,-3.039279785E0,1.020946523E1
4.004031167E0,2.328408051E0,-9.576485596E0,-2.471959534E0,1.016076495E1
4.014097167E0,2.596650238E0,-9.834998016E0,-1.685644684E0,1.031073113E1
4.024164167E0,3.183879089E0,-1.006027954E1,-9.993218994E-1,1.059929029E1
4.034231167E0,4.072730713E0,-1.014275803E1,-4.977149963E-1,1.094122461E1
4.044298167E0,4.990472260E0,-1.040606049E1,-4.041595459E-2,1.154090732E1
4.054365167E0,5.875282288E0,-1.088551346E1,3.197351074E-1,1.237398787E1
4.064432167E0,6.371201019E0,-1.131242569E1,3.382965088E-1,1.298759493E1
4.074499167E0,6.141877899E0,-1.129042145E1,-9.804611206E-2,1.285324448E1
4.084566167E0,5.338797913E0,-1.139146133E1,-8.704399109E-1,1.261054401E1
4.094632167E0,4.073179779E0,-1.210113556E1,-1.795516205E0,1.289388048E1
4.104699167E0,2.739752655E0,-1.271396118E1,-2.526446228E0,1.324892388E1
4.114766167E0,2.037263489E0,-1.283910095E1,-3.036884766E0,1.334974250E1
4.124833167E0,2.028132477E0,-1.255544083E1,-3.026556244E0,1.307334916E1
4.134900167E0,2.869832153E0,-1.218002151E1,-2.570155334E0,1.277476259E1
4.144967167E0,4.107159119E0,-1.188154221E1,-1.883682861E0,1.271172932E1
4.155034167E0,5.041815491E0,-1.153650970E1,-1.066083069E0,1.263516888E1
4.165101167E0,5.415887604E0,-1.116228790E1,-1.155596924E-1,1.240733105E1
4.175168167E0,5.302273865E0,-1.068358337E1,7.325765991E-1,1.194946569E1
4.185234167E0,4.915029144E0,-1.010937744E1,1.271755371E0,1.131257643E1
4.195301167E0,4.331243134E0,-9.596244507E0,1.472937012E0,1.063095100E1
4.205368167E0,3.509452057E0,-9.313183136E0,1.292711792E0,1.003607182E1
4.215435167E0,2.562521210E0,-9.022936707E0,8.770262146E-1,9.420672839E0
4.225502167E0,1.250349884E0,-8.214467926E0,8.325686646E-1,8.350690314E0
4.235569167E0,-1.496887207E-3,-7.688910828E0,1.016536102E0,7.755817017E0
4.245636167E0,2.122586060E-1,-8.050109711E0,1.285227356E0,8.154822464E0
4.255703167E0,7.265890503E-1,-9.094787292E0,1.281934204E0,9.213383898E0
4.265769167E0,9.675878906E-1,-1.072834030E1,1.394799500E0,1.086181281E1
4.275836167E0,1.595831451E0,-1.254286697E1,1.458716583E0,1.272784522E1
4.285903167E0,1.871408386E0,-1.371133713E1,1.177002411E0,1.388842215E1
4.295970167E0,1.760339355E0,-1.359802277E1,1.025367737E-1,1.371187557E1
4.306037167E0,2.096240845E0,-1.273446854E1,-1.092128906E0,1.295197514E1
4.316104167E0,2.271226959E0,-1.157887161E1,-1.215023346E0,1.186191475E1
4.326171167E0,2.077080688E0,-1.106274490E1,-6.816824341E-1,1.127666972E1
4.336237208E0,1.902843018E0,-1.070139633E1,-1.878593445E-1,1.087087789E1
4.346304208E0,1.606459351E0,-1.027403503E1,-8.771759033E-2,1.039924045E1
4.356370208E0,1.260528717E0,-9.854457550E0,-3.620970154E-1,9.941347016E0
4.366437208E0,1.192120972E0,-9.543554077E0,-6.243516541E-1,9.637966166E0
4.376504208E0,1.498833160E0,-9.043893127E0,-1.029109955E0,9.224834472E0
4.386571208E0,1.426832886E0,-8.811725922E0,-1.131047974E0,8.997868376E0
4.396638208E0,1.509461060E0,-8.852590942E0,-1.034648438E0,9.039764182E0
4.406705208E0,1.610500946E0,-8.943002930E0,-7.698490906E-1,9.119412389E0
4.416772208E0,1.516646118E0,-8.929980011E0,-1.225351868E0,9.140363540E0
4.426839208E0,2.479593658E0,-8.705746307E0,-1.764380951E0,9.222333957E0
4.436906208E0,2.587369537E0,-8.531059570E0,-1.782193909E0,9.091186592E0
4.446972208E0,2.484084320E0,-8.303083649E0,-1.162332916E0,8.744306193E0
4.457039208E0,2.198777618E0,-8.102051697E0,-1.624272308E0,8.550796761E0
4.467106208E0,1.937271423E0,-8.106841736E0,-1.911075897E0,8.551380858E0
4.477173208E0,2.034718781E0,-7.913743286E0,-1.877246246E0,8.384000643E0
4.487240208E0,1.672771454E0,-7.448810120E0,-1.741478577E0,7.830433204E0
4.497307208E0,1.074465637E0,-7.095095673E0,-1.437311096E0,7.318519126E0
4.507374208E0,5.986051941E-1,-6.654711456E0,-1.068029022E0,6.766402200E0
4.517441208E0,2.058219910E-1,-6.151158600E0,-8.798703003E-1,6.217176735E0
4.527507208E0,4.340972900E-3,-5.829926605E0,-8.379574585E-1,5.889841744E0
4.537574208E0,-1.660047913E-1,-5.644761658E0,-1.065933380E0,5.746921414E0
4.547641208E0,-4.692741394E-1,-5.407654724E0,-1.577270050E0,5.652497558E0
4.557708208E0,-6.836283875E-1,-4.965923309E0,-1.577270050E0,5.255047373E0
4.567775208E0,-1.049916687E0,-4.933889923E0,-1.913171539E0,5.394981016E0
4.577842208E0,-1.022224274E0,-5.447322235E0,-2.455194397E0,6.061867825E0
4.587909208E0,-4.276606750E-1,-5.697901154E0,-2.997217255E0,6.452308306E0
4.597976208E0,-9.714797974E-2,-5.505102081E0,-3.255130920E0,6.396206998E0
4.608043208E0,-1.532812500E-1,-5.335055695E0,-3.410058746E0,6.333625744E0
4.618109208E0,-3.189866638E-1,-5.190306702E0,-3.652255096E0,6.354526217E0
4.628176208E0,-3.209326172E-1,-5.026397552E0,-4.104315033E0,6.497158763E0
4.638243208E0,-1.327738953E-1,-5.066963196E0,-4.734504547E0,6.935941049E0
4.648310208E0,-1.360670471E-1,-5.731281738E0,-5.546266479E0,7.976664495E0
4.658377208E0,-6.526428223E-2,-7.023245087E0,-6.611152039E0,9.645598076E0
4.668444208E0,6.056405640E-1,-8.549321594E0,-8.013585663E0,1.173350993E1
4.678511208E0,1.728156281E0,-1.011491592E1,-9.479487305E0,1.396992226E1
4.688578208E0,3.013832703E0,-1.131377289E1,-1.055200699E1,1.576164636E1
4.698645208E0,4.340673523E0,-1.237237152E1,-1.058898010E1,1.685359081E1
4.708711208E0,5.117108917E0,-1.320643707E1,-9.728120270E0,1.718229053E1
4.718778208E0,4.593497772E0,-1.351614304E1,-8.711584167E0,1.672357746E1
4.728845208E0,3.350931702E0,-1.271396118E1,-7.986192627E0,1.538352446E1
4.738912208E0,2.414778442E0,-1.137649246E1,-7.519163818E0,1.384895520E1
4.748979208E0,1.862726440E0,-1.039767792E1,-7.236701202E0,1.280434692E1
4.759046208E0,1.528172150E0,-9.622889099E0,-7.219037933E0,1.212640975E1
4.769113208E0,1.023870850E0,-9.435927887E0,-7.135361938E0,1.187427626E1
4.779180208E0,6.810836792E-1,-1.015982254E1,-7.250023499E0,1.249994839E1
4.789246208E0,8.467890930E-1,-1.100571350E1,-7.771239624E0,1.349944246E1
4.799313208E0,1.409468994E0,-1.140643021E1,-7.965685272E0,1.398375467E1
4.809380208E0,2.338287506E0,-1.145328278E1,-7.017257538E0,1.363404482E1
4.819447208E0,2.834804993E0,-1.201805832E1,-5.786816254E0,1.363660836E1
4.829514208E0,2.617007904E0,-1.302246964E1,-4.041745148E0,1.388413302E1
4.839581208E0,1.744622040E0,-1.347647552E1,-1.394200745E0,1.366026699E1
4.849648208E0,3.505709839E-1,-1.286140457E1,7.563771057E-1,1.288839532E1
4.859715208E0,-9.906399536E-1,-1.152558243E1,9.734257507E-1,1.160896100E1
4.869782208E0,-1.882635040E0,-9.985734558E0,8.846603394E-2,1.016203895E1
4.879848208E0,-2.495011597E0,-8.717871094E0,-3.580554199E-1,9.074941485E0
4.889915208E0,-3.154240723E0,-7.451055450E0,6.601272583E-2,8.091465846E0
4.899982208E0,-3.581152954E0,-6.744674377E0,8.442443848E-2,7.636911445E0
4.910049208E0,-3.472778320E0,-6.624324646E0,-3.787124634E-1,7.489011244E0
4.920116208E0,-2.464175720E0,-7.032525787E0,-4.498146057E-1,7.465314066E0
4.930183208E0,-8.030799866E-1,-7.810907135E0,9.250762939E-2,7.852627929E0
4.940250208E0,7.996371460E-1,-8.960666199E0,7.114704895E-1,9.024364163E0
4.950317208E0,2.190245361E0,-1.038495438E1,1.095871124E0,1.066983532E1
4.960384208E0,3.454815674E0,-1.157782379E1,1.198407898E0,1.214157883E1
4.970450208E0,4.644691315E0,-1.232941086E1,1.027912445E0,1.321529922E1
4.980517208E0,5.526208191E0,-1.242206818E1,7.047344971E-1,1.361408849E1
4.990584208E0,5.280569000E0,-1.127874573E1,4.616400146E-1,1.246224802E1
5.000651208E0,4.715793457E0,-9.877210236E0,2.540217590E-1,1.094817414E1
5.010718208E0,4.456981659E0,-8.925788727E0,1.469943237E-1,9.977775165E0
5.020785208E0,4.308939514E0,-8.481512604E0,1.601669312E-1,9.514655497E0
5.030852208E0,3.860771484E0,-8.478518829E0,2.722837830E-1,9.320138221E0
5.040919208E0,3.280578003E0,-8.514444122E0,5.998027039E-1,9.144272198E0
5.050986208E0,3.171903992E0,-8.266858978E0,8.312214661E-1,8.893416746E0
5.061052208E0,3.046464844E0,-7.882009277E0,8.322692871E-1,8.491153659E0
5.071119208E0,2.480042725E0,-7.558981018E0,8.430468750E-1,7.999970874E0
5.081186208E0,1.528770905E0,-7.830815735E0,6.544390869E-1,8.005442278E0
5.091253208E0,9.912387085E-1,-8.564589844E0,5.822891235E-2,8.621957085E0
5.101320208E0,7.438032532E-1,-9.123976593E0,-4.845423889E-1,9.167059151E0
5.111387208E0,4.462220764E-1,-9.455836487E0,-1.040186920E0,9.523336949E0
5.121454208E0,4.391867065E-1,-9.589807892E0,-1.752256165E0,9.758468222E0
5.131521208E0,4.123924255E-1,-9.569599915E0,-2.446961517E0,9.886097850E0
5.141588208E0,4.143383789E-1,-9.484876099E0,-2.811004486E0,9.901328048E0
5.151654208E0,8.514294434E-1,-9.388177185E0,-2.995720367E0,9.891266020E0
5.161721208E0,1.381626892E0,-9.148525543E0,-2.966381378E0,9.716163387E0
5.171788208E0,1.813927917E0,-8.628806305E0,-2.665057983E0,9.211360746E0
5.181855208E0,2.226470032E0,-8.198301544E0,-2.150727539E0,8.763272560E0
5.191922208E0,2.435285797E0,-8.153544617E0,-1.663490753E0,8.670531023E0
5.201989208E0,2.622097321E0,-8.350385284E0,-1.094523926E0,8.820561852E0
5.212056208E0,2.683020630E0,-8.580157471E0,-6.599775696E-1,9.014059702E0
5.222123208E0,2.591261444E0,-8.670419769E0,-3.367996216E-1,9.055619738E0
5.232189208E0,2.423909454E0,-8.799601135E0,7.379653931E-2,9.127637324E0
5.242256208E0,2.231260071E0,-8.949589233E0,5.200186157E-1,9.238186419E0
5.252323208E0,1.990859985E0,-8.834328918E0,8.150550842E-1,9.092480724E0
5.262390208E0,1.757195892E0,-8.532107391E0,8.331674194E-1,8.750929202E0
5.272457208E0,1.638043671E0,-8.250991974E0,5.366340637E-1,8.429118088E0
5.282524208E0,1.591789856E0,-8.227191467E0,7.095245361E-2,8.380066147E0
5.292591208E0,1.670825500E0,-8.423283691E0,-2.847079468E-1,8.592114095E0
5.302658208E0,1.849553833E0,-8.685089264E0,-6.487509155E-1,8.903510693E0
5.312725208E0,2.095941467E0,-8.901988220E0,-1.114282837E0,9.213033765E0
5.322791208E0,2.324815521E0,-9.194779358E0,-1.761237488E0,9.646278668E0
5.332859042E0,2.536325684E0,-9.538015594E0,-2.527044983E0,1.018786758E1
5.342926042E0,2.636168060E0,-9.793085175E0,-3.138224030E0,1.061613627E1
5.352993042E0,2.679577789E0,-9.795180817E0,-3.233276367E0,1.065738150E1
5.363060042E0,2.763104095E0,-9.581575012E0,-2.686313782E0,1.032751692E1
5.373127042E0,2.956950989E0,-9.482481079E0,-1.567240906E0,1.005570737E1
5.383194042E0,3.220253448E0,-9.603728943E0,-2.357597351E-1,1.013199016E1
5.393261042E0,3.609294434E0,-9.880952454E0,9.066645813E-1,1.055851639E1
5.403328042E0,3.988306274E0,-1.018841309E1,1.698817291E0,1.107232263E1
5.413394042E0,4.136498108E0,-1.049572403E1,2.005828857E0,1.145836764E1
5.423461042E0,4.052522736E0,-1.086620361E1,1.652563477E0,1.171444781E1
5.433528042E0,3.775748291E0,-1.124072479E1,6.015989685E-1,1.187316682E1
5.443595042E0,3.512146454E0,-1.176568314E1,-6.894662476E-1,1.229804196E1
5.453662042E0,3.352727966E0,-1.241578125E1,-1.833986206E0,1.299060870E1
5.463729042E0,3.444337463E0,-1.288939636E1,-2.761906586E0,1.362454136E1
5.473796042E0,3.736829224E0,-1.285077667E1,-3.225941620E0,1.376637400E1
5.483863042E0,4.006717987E0,-1.265573227E1,-3.156336365E0,1.364491874E1
5.493930042E0,4.339176636E0,-1.263432678E1,-2.252066803E0,1.354719425E1
5.503996042E0,4.544399872E0,-1.248733246E1,-8.134085083E-1,1.331340210E1
5.514063042E0,4.481680298E0,-1.236159393E1,3.080593872E-1,1.315254209E1
5.524130042E0,4.376449127E0,-1.220726486E1,7.536827087E-1,1.298994457E1
5.534197042E0,4.166585541E0,-1.168500092E1,7.125183105E-1,1.242607596E1
5.544264042E0,3.689078522E0,-1.097472794E1,5.724096680E-1,1.159230807E1
5.554331042E0,3.035238190E0,-1.046488815E1,3.724255371E-1,1.090253437E1
5.564398042E0,2.236648865E0,-9.805060272E0,2.483335876E-1,1.005999377E1
5.574465042E0,1.297202454E0,-9.084608459E0,2.317181396E-1,9.179680733E0
5.584532042E0,6.096821594E-1,-8.215216370E0,5.526507568E-1,8.256325768E0
5.594598042E0,8.741821289E-2,-7.632029114E0,1.171613617E0,7.721929086E0
5.604665042E0,-8.337661743E-2,-7.941585388E0,1.323996735E0,8.051627009E0
5.614732042E0,3.350033569E-1,-9.247170410E0,5.363346863E-1,9.268767056E0
5.624799042E0,9.172924805E-1,-1.078971268E1,2.336640930E-1,1.083115525E1
5.634866042E0,1.563947754E0,-1.207508972E1,9.250762939E-1,1.221103970E1
5.644933042E0,1.986219635E0,-1.305076080E1,1.448238373E0,1.328024173E1
5.655000042E0,2.245630188E0,-1.329370560E1,1.348096619E0,1.354927407E1
5.665067042E0,2.592758331E0,-1.279584091E1,9.547146606E-1,1.309073797E1
5.675134042E0,2.711162109E0,-1.180699722E1,3.155438232E-1,1.211838072E1
5.685201042E0,2.555336151E0,-1.093386292E1,-2.788700867E-1,1.123195751E1
5.695267042E0,2.339784393E0,-1.027149033E1,-3.897894287E-1,1.054182339E1
5.705334042E0,2.096689911E0,-9.770033112E0,-1.422042847E-2,9.992490070E0
5.715401042E0,1.724863129E0,-9.410480804E0,2.240840149E-1,9.569875413E0
5.725468042E0,1.093326416E0,-9.414971466E0,-1.234931946E-1,9.479045360E0
5.735535042E0,5.839356995E-1,-9.299112396E0,-5.318440247E-1,9.332595048E0
5.745602042E0,3.591032410E-1,-8.778045959E0,-2.471360779E-1,8.788863535E0
5.755669042E0,1.009051666E0,-8.454418945E0,-1.294807434E-1,8.515406639E0
5.765736042E0,1.791025543E0,-8.567733307E0,-5.529501343E-1,8.770380856E0
5.775802042E0,2.581980743E0,-8.762777710E0,-1.761087799E0,9.303457851E0
5.785869042E0,3.085383911E0,-8.947044525E0,-2.671195221E0,9.833843782E0
5.795936042E0,3.207978973E0,-8.997489624E0,-3.069516907E0,1.003333856E1
5.806003042E0,2.639012146E0,-8.815917206E0,-2.950664062E0,9.663912236E0
5.816070042E0,1.646126862E0,-8.337811432E0,-2.789898376E0,8.944963168E0
5.826137042E0,1.844464417E0,-7.729476471E0,-2.684517517E0,8.387698719E0
5.836204042E0,2.833008728E0,-7.214247894E0,-1.616338806E0,7.917314082E0
5.846271042E0,1.957329712E0,-7.243437195E0,-1.240021362E0,7.605009860E0
5.856338042E0,1.144220581E0,-7.275470581E0,-1.441203003E0,7.504583867E0
5.866405042E0,-1.933978271E-1,-6.797963562E0,-1.773062897E0,7.028048331E0
5.876471042E0,1.167572021E0,-6.319259033E0,-1.259331207E0,6.548448232E0
5.886538042E0,1.258582764E0,-6.243815918E0,-1.108444977E0,6.465130939E0
5.896605042E0,4.713697815E-1,-6.344406738E0,-1.653311920E0,6.573212809E0
5.906672042E0,4.029620361E-1,-6.126759338E0,-1.710193634E0,6.373721100E0
5.916739042E0,4.317022705E-1,-5.843697968E0,-1.647024994E0,6.086695665E0
5.926806042E0,1.558259583E-1,-5.626499634E0,-1.815424805E0,5.914181861E0
5.936873042E0,-2.865042114E-1,-5.528603210E0,-2.238894196E0,5.971614969E0
5.946940042E0,-4.466711426E-1,-5.504503326E0,-2.639311523E0,6.120868999E0
5.957006042E0,-3.222798157E-1,-5.658533020E0,-3.064726868E0,6.443245377E0
5.967073042E0,-2.529739380E-2,-5.705684967E0,-3.628903656E0,6.761983632E0
5.977140042E0,3.097059631E-1,-5.507646790E0,-4.016148376E0,6.823455043E0
5.987207042E0,4.755610657E-1,-5.303920441E0,-4.084705811E0,6.711374816E0
5.997274042E0,4.197271729E-1,-5.335654449E0,-4.136198730E0,6.764134774E0
6.007341042E0,5.745053101E-1,-5.520070953E0,-4.446802826E0,7.111630970E0
6.017408042E0,8.589138794E-1,-6.052663422E0,-5.215155029E0,8.035565290E0
6.027475042E0,8.479866028E-1,-7.613318024E0,-6.255940704E0,9.890322882E0
6.037542042E0,8.238867188E-1,-9.491462402E0,-7.156917114E0,1.191587640E1
6.047608042E0,1.053658905E0,-1.088416626E1,-8.069718933E0,1.359027726E1
6.057675042E0,1.561702423E0,-1.138158188E1,-9.022637329E0,1.460778234E1
6.067742042E0,2.510579224E0,-1.154070099E1,-9.526639252E0,1.517391323E1
6.077809042E0,3.884422302E0,-1.210113556E1,-9.190588074E0,1.568416806E1
6.087876042E0,5.218448181E0,-1.245679596E1,-8.112978973E0,1.575513868E1
6.097943042E0,5.698350220E0,-1.163470551E1,-7.578739929E0,1.500915941E1
6.108010042E0,5.048701172E0,-1.091305618E1,-8.286617889E0,1.460315770E1
6.118077042E0,4.024081879E0,-1.029094986E1,-9.132359161E0,1.433516194E1
6.128144042E0,3.043321381E0,-9.264085236E0,-9.184600525E0,1.339559506E1
6.138210042E0,2.148482208E0,-8.200696564E0,-8.817114716E0,1.223147219E1
6.148277042E0,1.547931061E0,-7.686665497E0,-7.746540985E0,1.102224180E1
6.158344042E0,1.048270111E0,-8.582103424E0,-6.281088409E0,1.068660100E1
6.168411042E0,9.370513916E-1,-1.019395157E1,-5.360802155E0,1.155564423E1
6.178478042E0,1.559157715E0,-1.140837616E1,-4.569697266E0,1.238806492E1
6.188545042E0,2.302511902E0,-1.185220322E1,-3.655099182E0,1.261491309E1
6.198612042E0,2.554438019E0,-1.192001221E1,-3.217708740E0,1.260815189E1
6.208679042E0,2.460732880E0,-1.226279938E1,-3.101550293E0,1.288608044E1
6.218746042E0,1.975142670E0,-1.256831406E1,-2.171085205E0,1.290648355E1
6.228813042E0,7.384144592E-1,-1.234512817E1,-8.955876160E-1,1.239957752E1
6.238879042E0,-2.790197754E-1,-1.137529495E1,-9.741741943E-1,1.142034162E1
6.248946042E0,-8.551716614E-1,-1.015697845E1,-1.903890839E0,1.036920104E1
6.259013042E0,-1.544787598E0,-9.011560364E0,-2.028132477E0,9.365250144E0
6.269080042E0,-2.644850006E0,-8.077652435E0,-9.559121704E-1,8.553213928E0
6.279147042E0,-3.463647308E0,-7.646548920E0,-1.793270874E-1,8.396351664E0
6.289214042E0,-3.672762451E0,-7.584128723E0,-1.556762695E-2,8.426650275E0
6.299281042E0,-3.243754578E0,-7.810907135E0,1.507365417E-1,8.459015045E0
6.309348042E0,-2.156266022E0,-8.350235596E0,3.858975220E-1,8.632776758E0
6.319415042E0,-4.721182251E-1,-9.119635620E0,6.604266357E-1,9.155698379E0
6.329484167E0,1.264720001E0,-9.869276733E0,9.340576172E-1,9.993728211E0
6.339551167E0,2.662662964E0,-1.073268127E1,1.168769531E0,1.111963325E1
6.349618167E0,4.148922272E0,-1.162063477E1,1.288071442E0,1.240612093E1
6.359685167E0,5.616171112E0,-1.234842133E1,1.046324158E0,1.360586937E1
6.369752167E0,6.033353577E0,-1.183768341E1,8.647517395E-1,1.331464981E1
6.379819167E0,5.259013824E0,-1.043734543E1,8.954379272E-1,1.172165582E1
6.389886167E0,4.444407806E0,-9.183103638E0,9.391470337E-1,1.024520133E1
6.399953167E0,4.034560089E0,-8.440647583E0,9.413923645E-1,9.402575515E0
6.410020167E0,3.938160553E0,-8.077802124E0,8.205935669E-1,9.024043966E0
6.420087167E0,3.993844757E0,-8.012986908E0,6.303392029E-1,8.975304042E0
6.430153167E0,3.706292725E0,-8.171207886E0,5.020559692E-1,8.986506789E0
6.440220167E0,3.251837769E0,-8.429570618E0,3.350033569E-1,9.041257486E0
6.450287167E0,2.719095612E0,-8.470435638E0,2.743794250E-1,8.900395773E0
6.460354167E0,2.131567383E0,-8.471633148E0,3.144960022E-1,8.741341741E0
6.470421167E0,1.617835693E0,-8.698411560E0,1.725910950E-1,8.849267975E0
6.480488167E0,1.194665680E0,-9.101672974E0,-1.544787598E-1,9.181042462E0
6.490555167E0,7.300318909E-1,-9.498048706E0,-6.047424316E-1,9.545239085E0
6.500622167E0,4.531077576E-1,-9.611812134E0,-1.214125214E0,9.698780293E0
6.510688167E0,3.996688843E-1,-9.447004852E0,-1.882185974E0,9.640967791E0
6.520755167E0,5.387297058E-1,-9.197024689E0,-2.312091980E0,9.498487361E0
6.530822167E0,7.638615417E-1,-9.045839081E0,-2.607577515E0,9.445112473E0
6.540889167E0,9.752220154E-1,-8.874445496E0,-2.834355927E0,9.366985340E0
6.550956167E0,1.234931946E0,-8.640182648E0,-2.848276978E0,9.180985505E0
6.561023167E0,1.509760437E0,-8.404722290E0,-2.568658447E0,8.917215909E0
6.571090167E0,1.761836243E0,-8.262817383E0,-2.019749908E0,8.686633856E0
6.581157167E0,2.146835632E0,-8.269852753E0,-1.545086975E0,8.682549254E0
6.591224167E0,2.536924438E0,-8.329728241E0,-1.171613617E0,8.785956786E0
6.601290167E0,2.714155884E0,-8.334667969E0,-7.321275330E-1,8.795984484E0
6.611357167E0,2.712658997E0,-8.421936493E0,-3.423381042E-1,8.854644459E0
6.621424167E0,2.785557404E0,-8.672365723E0,-2.004331970E-1,9.110951144E0
6.631491167E0,2.805166626E0,-8.655001831E0,1.032852173E-1,9.098828734E0
6.641558167E0,2.617157593E0,-8.377928009E0,4.314028931E-1,8.787792672E0
6.651625167E0,2.388433228E0,-8.237220612E0,6.173162842E-1,8.598691533E0
6.661692167E0,2.239942017E0,-8.174201660E0,7.177574158E-1,8.505885535E0
6.671759167E0,1.980531464E0,-8.403375092E0,6.149212646E-1,8.655480690E0
6.681826167E0,1.781744843E0,-8.995543671E0,2.841091919E-1,9.174701011E0
6.691893167E0,1.672172699E0,-9.683962097E0,-2.131567383E-1,9.829583879E0
6.701959167E0,1.717977448E0,-1.024005569E1,-7.373666382E-1,1.040931778E1
6.712026167E0,1.863175507E0,-1.059077637E1,-1.366208954E0,1.083985673E1
6.722093167E0,1.884730682E0,-1.060754150E1,-2.091151428E0,1.097474650E1
6.732160167E0,1.788331146E0,-1.034109558E1,-2.859204254E0,1.087710601E1
6.742227167E0,1.757944336E0,-1.004052063E1,-3.543431396E0,1.079158602E1
6.752294167E0,2.013013916E0,-9.845476227E0,-3.783831482E0,1.073792381E1
6.762361167E0,2.668949890E0,-1.001163071E1,-3.198997650E0,1.084387518E1
6.772428167E0,3.397484894E0,-1.026999344E1,-1.916464691E0,1.098583205E1
6.782495167E0,4.096231842E0,-1.039004379E1,-5.715115356E-1,1.118296699E1
6.792561167E0,4.744683380E0,-1.055559952E1,5.152285767E-1,1.158439304E1
6.802628167E0,5.227130127E0,-1.070139633E1,1.254391479E0,1.197565325E1
6.812695167E0,5.412295074E0,-1.073073532E1,1.477277985E0,1.210883846E1
6.822762167E0,5.279221802E0,-1.122545654E1,1.027313690E0,1.244734634E1
6.832829167E0,5.022206268E0,-1.222537720E1,-2.080673218E-2,1.321676346E1
6.842896167E0,4.757257233E0,-1.321182587E1,-1.493743744E0,1.412144148E1
6.852963167E0,4.184248810E0,-1.348291214E1,-3.029550018E0,1.443866445E1
6.863030167E0,3.816912689E0,-1.316886520E1,-4.353696442E0,1.438549637E1
6.873097167E0,4.232897644E0,-1.274913803E1,-4.476590881E0,1.415972489E1
6.883164167E0,4.844076691E0,-1.236159393E1,-2.891537018E0,1.358804879E1
6.893230167E0,5.221441956E0,-1.188618256E1,-1.038240967E0,1.302392937E1
6.903297167E0,5.218448181E0,-1.134894974E1,3.562591553E-1,1.249631074E1
6.913364167E0,4.964875488E0,-1.089973389E1,1.124012604E0,1.202986250E1
6.923431167E0,4.596491547E0,-1.018362305E1,1.717977448E0,1.130421866E1
6.933498167E0,3.951033783E0,-9.192534027E0,2.126777344E0,1.022919995E1
6.943565167E0,3.307222595E0,-8.528664551E0,2.215243378E0,9.411861853E0
6.953632167E0,2.475102997E0,-8.171656952E0,2.135908356E0,8.801375841E0
6.963699167E0,1.612446899E0,-8.389454041E0,1.875899048E0,8.746537677E0
6.973766167E0,6.774911499E-1,-9.171727295E0,1.582359467E0,9.331850691E0
6.983832167E0,-8.068222046E-2,-1.014066238E1,1.599423981E0,1.026633821E1
6.993899167E0,-8.262817383E-2,-1.105840393E1,1.781445465E0,1.120127996E1
7.003966167E0,3.430865479E-1,-1.166808609E1,2.004781036E0,1.184403176E1
7.014033167E0,6.249504089E-1,-1.205592957E1,2.053729248E0,1.224556265E1
7.024100167E0,9.033714294E-1,-1.201641174E1,1.753004608E0,1.217716126E1
7.034167167E0,1.296154633E0,-1.131212631E1,1.214274902E0,1.145070662E1
7.044234167E0,1.803898773E0,-1.050231033E1,7.372169495E-1,1.068157582E1
7.054301167E0,2.122436371E0,-1.024858795E1,5.050497437E-1,1.047823298E1
7.064368167E0,2.271376648E0,-1.030876282E1,3.751199341E-1,1.056269178E1
7.074434167E0,2.565664673E0,-1.016296600E1,2.845582581E-1,1.048568007E1
7.084501167E0,2.878663788E0,-9.818083191E0,5.942642212E-2,1.023156851E1
7.094568167E0,3.248394928E0,-9.203610992E0,-3.221301270E-1,9.765361884E0
7.104635167E0,3.696712646E0,-9.059311066E0,-5.792953491E-1,9.801652130E0
7.114702167E0,3.891607361E0,-9.511820068E0,-1.803000641E0,1.043408550E1
7.124769167E0,3.243754578E0,-9.795180817E0,-2.194736023E0,1.054914106E1
7.134836167E0,2.422113190E0,-9.601932678E0,-1.630110168E0,1.003598538E1
7.144903167E0,1.954036560E0,-9.304201813E0,-1.272952881E0,9.592019562E0
7.154970167E0,2.181713104E0,-9.034911804E0,-1.339115295E0,9.390566179E0
7.165037167E0,2.492915955E0,-8.842561798E0,-1.326840820E0,9.282566222E0
7.175103167E0,2.577789459E0,-8.869505768E0,-1.332678680E0,9.332157496E0
7.185170167E0,2.519859924E0,-8.790470123E0,-1.421593781E0,9.254349675E0
7.195237167E0,2.193239136E0,-8.675209808E0,-1.738933868E0,9.115561098E0
7.205304167E0,1.365011444E0,-8.452622681E0,-2.255060577E0,8.854116818E0
7.215371167E0,1.036594391E0,-8.017776947E0,-2.015858002E0,8.332044082E0
7.225438167E0,9.354048157E-1,-7.550448761E0,-1.530118103E0,7.760510297E0
7.235505167E0,1.175655212E0,-7.195087738E0,-1.028810577E0,7.362737530E0
7.245572167E0,8.963360596E-1,-7.021448822E0,-6.113287354E-1,7.104779005E0
7.255639167E0,2.724334717E-1,-6.999444580E0,-7.912545776E-1,7.049292747E0
7.265705167E0,-2.477348328E-1,-6.871011658E0,-1.017284546E0,6.950326726E0
7.275772167E0,-7.044351196E-1,-6.521937561E0,-1.275497589E0,6.682723433E0
7.285839167E0,-1.071920929E0,-6.263574829E0,-1.676363983E0,6.572030152E0
7.295906167E0,-1.223405914E0,-6.096222839E0,-1.934277649E0,6.511688334E0
7.305973167E0,-8.225395203E-1,-5.905369720E0,-2.233954468E0,6.367143422E0
7.316040167E0,-5.040019226E-1,-5.715115356E0,-2.615810394E0,6.305475834E0
7.326107167E0,-6.465055847E-1,-5.628894653E0,-3.015030212E0,6.418164198E0
7.336170667E0,4.710704041E-1,-5.636079712E0,-3.028202820E0,6.415396649E0
7.346237667E0,5.445675659E-1,-5.823040924E0,-2.813249817E0,6.489894758E0
7.356304667E0,1.851649475E-1,-6.029311981E0,-3.032543793E0,6.751533965E0
7.366370667E0,1.438508606E-1,-6.332880707E0,-3.459306335E0,7.217539154E0
7.376437667E0,-1.960922241E-1,-6.641688538E0,-4.031716003E0,7.772079048E0
7.386504667E0,-8.065228271E-1,-6.861730957E0,-4.677323456E0,8.343331799E0
7.396571667E0,-1.206191711E0,-6.895410919E0,-5.208568726E0,8.725295316E0
7.406638667E0,-1.702110443E0,-7.246430969E0,-5.561085663E0,9.291588427E0
7.416705667E0,-1.509161682E0,-7.808811493E0,-6.359525299E0,1.018325429E1
7.426772667E0,-3.221301270E-1,-8.386460266E0,-7.539521484E0,1.128188228E1
7.436839667E0,9.837542725E-1,-9.127419434E0,-8.729696503E0,1.266827372E1
7.446906667E0,2.307900696E0,-1.004216721E1,-9.573042755E0,1.406466052E1
7.456972667E0,3.602857819E0,-1.109447891E1,-9.801318054E0,1.523594048E1
7.467039667E0,4.350852356E0,-1.179547119E1,-9.622290344E0,1.583197803E1
7.477106667E0,4.057312775E0,-1.189037384E1,-9.607321472E0,1.581592245E1
7.487173667E0,3.270548859E0,-1.129491211E1,-9.792935486E0,1.530271593E1
7.497240667E0,2.610271912E0,-1.053973251E1,-9.542206879E0,1.445521335E1
7.507307667E0,2.321672058E0,-9.581874390E0,-8.769513702E0,1.319495542E1
7.517374667E0,2.309696960E0,-8.495882721E0,-8.004604340E0,1.189909299E1
7.527441667E0,2.499053192E0,-7.907306671E0,-7.582482147E0,1.123676115E1
7.537508667E0,2.764900360E0,-8.567284241E0,-6.942862244E0,1.136865733E1
7.547575667E0,2.787802734E0,-1.013332764E1,-5.830375671E0,1.201871264E1
7.557641667E0,2.353406067E0,-1.175325897E1,-4.100872192E0,1.266865302E1
7.567708667E0,1.848356323E0,-1.259376114E1,-2.448308716E0,1.296200047E1
7.577775667E0,1.372795258E0,-1.279688873E1,-2.047741699E0,1.303219759E1
7.587842667E0,8.927435303E-1,-1.335268295E1,-2.550695801E0,1.362340567E1
7.597909667E0,4.538562012E-1,-1.385473892E1,-3.504961395E0,1.429841007E1
7.607976667E0,1.332229614E-1,-1.373917923E1,-4.648283844E0,1.450480393E1
7.618043667E0,-2.718347168E-1,-1.263462616E1,-5.406008148E0,1.374527542E1
7.628110667E0,-9.279203796E-1,-1.040561142E1,-4.020489349E0,1.119384294E1
7.638177667E0,-1.837279358E0,-8.160729675E0,-8.229885864E-1,8.405380092E0
7.648243667E0,-2.860401764E0,-6.661148071E0,1.809586945E0,7.471773336E0
7.658310667E0,-3.383414154E0,-5.990991669E0,2.474204865E0,7.311714041E0
7.668377667E0,-3.488645325E0,-6.158044281E0,2.026934967E0,7.362107098E0
7.678444667E0,-2.927761688E0,-7.093299408E0,1.221010895E0,7.770299389E0
7.688511667E0,-1.680555267E0,-8.525521088E0,8.325686646E-1,8.729372624E0
7.698578667E0,5.792953491E-2,-9.898166656E0,1.041234741E0,9.952950757E0
7.708645667E0,1.901944885E0,-1.109567642E1,1.274898834E0,1.132946586E1
7.718712667E0,3.412453766E0,-1.205054077E1,1.346150665E0,1.259652711E1
7.728779667E0,4.744533691E0,-1.255663834E1,1.173260193E0,1.347428313E1
7.738845667E0,5.809718628E0,-1.235874985E1,1.035546570E0,1.369539649E1
7.748912667E0,5.832321625E0,-1.099718124E1,9.527687073E-1,1.248445990E1
7.758979667E0,5.103038177E0,-9.425000610E0,6.948550415E-1,1.074031930E1
7.769046667E0,4.668641510E0,-8.323890381E0,4.556524658E-1,9.554631536E0
7.779113667E0,4.392914886E0,-7.947273560E0,4.742138672E-1,9.092949853E0
7.789180667E0,3.538940735E0,-8.318800964E0,5.358856201E-1,9.056142910E0
7.799247667E0,3.261567535E0,-8.903036041E0,6.632707214E-1,9.504830435E0
7.809314667E0,3.364104309E0,-9.177116089E0,6.947053528E-1,9.798942445E0
7.819381667E0,2.850522308E0,-9.049281921E0,7.286846924E-1,9.515564203E0
7.829448667E0,2.076182556E0,-8.918004913E0,6.462062073E-1,9.179266207E0
7.839514667E0,1.489402771E0,-8.844507751E0,4.896318054E-1,8.982392626E0
7.849581667E0,5.369334412E-1,-8.945996704E0,3.634442139E-1,8.969461871E0
7.859648667E0,-6.915618896E-2,-9.102122040E0,-7.439529419E-2,9.102688771E0
7.869715667E0,-3.743714905E-1,-9.238937531E0,-7.367678833E-1,9.275825980E0
7.879782667E0,-7.262896729E-1,-9.402547302E0,-1.461710358E0,9.543164550E0
7.889849667E0,-8.346643066E-1,-9.368118896E0,-2.317031708E0,9.686431340E0
7.899916667E0,-4.921765137E-1,-9.029073944E0,-2.966680756E0,9.516701567E0
7.909983667E0,4.068539429E-1,-8.794811096E0,-3.040327606E0,9.314388026E0
7.920050667E0,1.178798676E0,-8.699908447E0,-2.755020905E0,9.201527780E0
7.930117667E0,1.789378967E0,-8.738977203E0,-2.335144043E0,9.220872917E0
7.940183667E0,2.511327667E0,-8.844058685E0,-1.807940369E0,9.369780630E0
7.950250667E0,2.935994568E0,-8.826844482E0,-1.203946381E0,9.379911221E0
7.960317667E0,3.067870331E0,-8.643026733E0,-7.104226685E-1,9.198828178E0
7.970384667E0,3.041674805E0,-8.438551941E0,-2.628533936E-1,8.973852929E0
7.980451667E0,2.924917603E0,-8.413404236E0,4.251159668E-2,8.907430665E0
7.990518667E0,2.670147400E0,-8.391250305E0,2.354603577E-1,8.808984641E0
8.000585667E0,2.424059143E0,-8.339008942E0,3.116519165E-1,8.689779041E0
8.010652667E0,2.285447388E0,-8.299940186E0,2.499801636E-1,8.612477398E0
8.020719667E0,2.232756958E0,-8.239016876E0,1.552272034E-1,8.537604945E0
8.030785667E0,2.149530029E0,-8.265062714E0,-3.712280273E-2,8.540088940E0
8.040852667E0,1.935774536E0,-8.309220886E0,-3.237767029E-1,8.537868946E0
8.050919667E0,1.721869354E0,-8.489895172E0,-7.171586609E-1,8.692380034E0
8.060986667E0,1.669478302E0,-8.774752808E0,-1.178199921E0,9.009528272E0
8.071053667E0,1.764979706E0,-9.080417175E0,-1.610201569E0,9.389455710E0
8.081120667E0,1.942510529E0,-9.360035706E0,-1.963017883E0,9.758947421E0
8.091187667E0,2.208357697E0,-9.497899017E0,-2.254162445E0,1.000840536E1
8.101254667E0,2.477048950E0,-9.573940887E0,-2.460732880E0,1.019074688E1
8.111321667E0,2.680326233E0,-9.603728943E0,-2.553090820E0,1.029242591E1
8.121387667E0,2.801424408E0,-9.558073883E0,-2.339485016E0,1.023122403E1
8.131454667E0,2.911295929E0,-9.525441742E0,-1.909429321E0,1.014177522E1
8.141521667E0,3.010539551E0,-9.553134155E0,-1.292262726E0,1.009929025E1
8.151588667E0,3.285368042E0,-9.702224121E0,-4.843927002E-1,1.025482483E1
8.161655667E0,3.611988831E0,-9.864337006E0,3.969744873E-1,1.051233545E1
8.171722667E0,3.861819305E0,-9.987381134E0,1.018931122E0,1.075637722E1
8.181789667E0,4.160597992E0,-1.028136978E1,1.197210388E0,1.115573632E1
8.191856667E0,4.322112122E0,-1.069735474E1,8.328680420E-1,1.156752872E1
8.201923667E0,4.008214874E0,-1.110271179E1,4.475692749E-2,1.180415176E1
8.211990667E0,3.529660034E0,-1.180684753E1,-9.425898743E-1,1.235915144E1
8.222056667E0,3.131488037E0,-1.284434006E1,-2.000290375E0,1.337103027E1
8.232123667E0,2.871029663E0,-1.343546082E1,-2.818189545E0,1.402485690E1
8.242190667E0,2.752625885E0,-1.338411758E1,-3.326682129E0,1.406336968E1
8.252257667E0,2.761906586E0,-1.287083496E1,-3.279530182E0,1.356620208E1
8.262324667E0,3.263663177E0,-1.247341141E1,-2.546803894E0,1.314243887E1
8.272391667E0,3.858376465E0,-1.229513214E1,-1.354533234E0,1.295731853E1
8.282458667E0,4.307143250E0,-1.219588852E1,-2.721340942E-1,1.293697170E1
8.292525667E0,4.353995819E0,-1.142424316E1,3.875440979E-1,1.223195822E1
8.302592667E0,4.139940948E0,-1.048539551E1,6.878196716E-1,1.129405711E1
8.312659667E0,3.812571716E0,-9.750124512E0,8.387059021E-1,1.050257391E1
8.322725667E0,3.529210968E0,-9.490414581E0,9.746232605E-1,1.017217722E1
8.332793958E0,3.313060455E0,-9.532327423E0,1.164877625E0,1.015866997E1
8.342860958E0,2.719394989E0,-9.181457062E0,1.546733551E0,9.699827192E0
8.352927958E0,1.759291534E0,-8.924142151E0,1.922751617E0,9.296902367E0
8.362994958E0,1.100810852E0,-9.348060608E0,1.837578735E0,9.590345003E0
8.373061958E0,7.869136047E-1,-1.020203476E1,1.032552795E0,1.028430413E1
8.383128958E0,7.878117371E-1,-1.139685013E1,2.839595032E-1,1.142757512E1
8.393195958E0,1.343905334E0,-1.241518250E1,5.607339478E-1,1.250029042E1
8.403262958E0,1.825304260E0,-1.286305115E1,1.186133423E0,1.304594699E1
8.413328958E0,1.926643524E0,-1.297217422E1,1.469344482E0,1.319652350E1
8.423395958E0,1.916165314E0,-1.260798157E1,1.351090393E0,1.282413092E1
8.433462958E0,1.810485077E0,-1.144564865E1,1.090632019E0,1.163916696E1
8.443529958E0,1.891616364E0,-1.044423111E1,5.652246094E-1,1.062918881E1
8.453596958E0,1.993853760E0,-1.016416351E1,1.432521057E-1,1.035887030E1
8.463663958E0,1.918260956E0,-9.980345764E0,1.294807434E-1,1.016384730E1
8.473730958E0,1.898951111E0,-9.512269135E0,8.397537231E-2,9.700326349E0
8.483797958E0,2.133962402E0,-8.935817871E0,-3.397933960E-2,9.187153594E0
8.493864958E0,2.515518951E0,-8.596323853E0,-2.779719543E-1,8.961132059E0
8.503931958E0,2.527494049E0,-8.851393433E0,-5.689668274E-1,9.222749867E0
8.513997958E0,2.657274170E0,-9.408684540E0,-1.167122955E0,9.846147814E0
8.524064958E0,1.869612122E0,-9.948911133E0,-1.825453949E0,1.028632900E1
8.534131958E0,1.459914093E0,-9.662406921E0,-1.731299744E0,9.924255915E0
8.544198958E0,1.557960205E0,-9.000633087E0,-1.678309937E0,9.287376390E0
8.554265958E0,1.441053314E0,-8.549171906E0,-2.005978546E0,8.898815924E0
8.564332958E0,1.213227081E0,-8.198750610E0,-1.867666168E0,8.495858311E0
8.574399958E0,1.322350159E0,-7.987090759E0,-1.623823242E0,8.257059444E0
8.584466958E0,1.587299194E0,-7.776927795E0,-1.688189392E0,8.114807952E0
8.594533958E0,1.334325256E0,-7.579787750E0,-2.037562866E0,7.961486586E0
8.604599958E0,8.884025574E-1,-7.486381989E0,-1.636995850E0,7.714592004E0
8.614666958E0,7.747888184E-1,-7.393724670E0,-1.309177551E0,7.548603055E0
8.624733958E0,6.129753113E-1,-7.480095062E0,-1.769320679E0,7.710905040E0
8.634800958E0,5.489085388E-1,-7.293133850E0,-1.906734924E0,7.558223337E0
8.644867958E0,7.818241882E-1,-7.054829407E0,-1.563798065E0,7.268241287E0
8.654934958E0,9.156459045E-1,-6.694079590E0,-1.275198212E0,6.875699198E0
8.665001958E0,1.090332642E0,-6.333928528E0,-1.185534668E0,6.535515918E0
8.675068958E0,1.008752289E0,-6.060896301E0,-1.288969574E0,6.278016225E0
8.685135958E0,6.563850403E-1,-5.804928589E0,-1.432521057E0,6.014994083E0
8.695202958E0,4.923262024E-1,-5.655838623E0,-1.845661926E0,5.969703809E0
8.705268958E0,4.595443726E-1,-5.713019714E0,-2.339185638E0,6.190441401E0
8.715335958E0,4.728666687E-1,-5.885760498E0,-2.778671722E0,6.525855964E0
8.725402958E0,5.221142578E-1,-5.871540070E0,-3.167862396E0,6.692005548E0
8.735469958E0,1.239422607E-1,-5.959856415E0,-3.553759918E0,6.940061940E0
8.745536958E0,-2.037263489E-1,-6.004164276E0,-3.947740631E0,7.188612465E0
8.755603958E0,-7.450007629E-1,-6.007607117E0,-4.341571655E0,7.449537827E0
8.765670958E0,-1.378782806E0,-6.159092102E0,-4.644841003E0,7.836453630E0
8.775737958E0,-1.902992706E0,-6.593937836E0,-4.863835602E0,8.411794944E0
8.785804958E0,-1.896855469E0,-6.880891113E0,-5.191354523E0,8.825807893E0
8.795870958E0,-1.548679504E0,-7.402705994E0,-5.665568390E0,9.449715838E0
8.805937958E0,-6.066883850E-1,-8.026009827E0,-6.195466461E0,1.015719987E1
8.816004958E0,5.935157776E-1,-8.596922607E0,-6.626569977E0,1.087063793E1
8.826071958E0,1.679208069E0,-9.307345276E0,-7.009473724E0,1.177196406E1
8.836138958E0,2.778072968E0,-1.024140289E1,-7.669900360E0,1.309318121E1
8.846205958E0,3.708238678E0,-1.126168121E1,-8.588540039E0,1.464033872E1
8.856272958E0,4.150269470E0,-1.184920944E1,-9.391919403E0,1.567917891E1
8.866339958E0,3.963457947E0,-1.167362457E1,-9.928254089E0,1.582885779E1
8.876406958E0,3.379073181E0,-1.094943054E1,-1.006641678E1,1.525257065E1
8.886473958E0,2.891387329E0,-1.030651749E1,-9.841883698E0,1.454122065E1
8.896539958E0,2.547402649E0,-9.770482178E0,-9.310788116E0,1.373471360E1
8.906606958E0,2.124981079E0,-9.464817810E0,-8.638087006E0,1.298902875E1
8.916673958E0,1.540746002E0,-9.563762054E0,-7.821535034E0,1.245053626E1
8.926740958E0,1.092727661E0,-1.013916550E1,-6.554719391E0,1.212275039E1
8.936807958E0,9.605525208E-1,-1.082114731E1,-5.182822266E0,1.203667466E1
8.946874958E0,1.115330658E0,-1.139325760E1,-4.273163910E0,1.221925575E1
8.956941958E0,1.505120087E0,-1.149863846E1,-3.564537506E0,1.213218861E1
8.967008958E0,1.830243988E0,-1.159204422E1,-3.009940796E0,1.211548702E1
8.977075958E0,1.699266357E0,-1.248029709E1,-2.484683075E0,1.283818412E1
8.987142958E0,1.207089844E0,-1.378917526E1,-1.925895081E0,1.397524569E1
8.997208958E0,4.617897034E-1,-1.441696976E1,-1.225202179E0,1.447630433E1
9.007275958E0,-2.344125366E-1,-1.366179016E1,-1.352587280E0,1.373058455E1
9.017342958E0,-1.015188904E0,-1.173140442E1,-2.383792877E0,1.201411364E1
9.027409958E0,-1.951192474E0,-9.650880890E0,-2.582878876E0,1.017928864E1
9.037476958E0,-3.027154999E0,-7.662415924E0,-9.759704590E-1,8.296312646E0
9.047543958E0,-3.807332611E0,-6.547085266E0,2.686912537E-1,7.578410261E0
9.057610958E0,-3.668421478E0,-6.352789307E0,7.589218140E-1,7.375039691E0
9.067677958E0,-2.392923889E0,-6.688840485E0,7.605683899E-1,7.144587885E0
9.077744958E0,-1.159488831E0,-7.473658447E0,9.461824036E-1,7.622023752E0
9.087810958E0,3.140469360E-1,-8.655001831E0,1.615290985E0,8.810042403E0
9.097877958E0,1.677860870E0,-1.002151016E1,2.017654266E0,1.035938279E1
9.107944958E0,2.763253784E0,-1.115435440E1,2.095342712E0,1.168099545E1
9.118011958E0,3.999832306E0,-1.211969696E1,1.888622589E0,1.290165137E1
9.128078958E0,5.115312653E0,-1.252969437E1,1.493144989E0,1.361576830E1
9.138145958E0,5.062322845E0,-1.145028900E1,1.009201355E0,1.256004451E1
9.148212958E0,4.536466370E0,-9.896520081E0,5.442681885E-1,1.090031489E1
9.158279958E0,4.095483398E0,-8.812624054E0,4.543052673E-1,9.728397620E0
9.168346958E0,3.935166779E0,-8.237969055E0,7.003935242E-1,9.156430681E0
9.178413958E0,3.901636505E0,-7.988737335E0,1.006057892E0,8.947337264E0
9.188479958E0,3.757935333E0,-8.175997925E0,1.038690033E0,9.058029423E0
9.198546958E0,3.387605438E0,-8.463100891E0,7.821235657E-1,9.149407881E0
9.208613958E0,3.268902283E0,-8.677006073E0,2.668949890E-1,9.276173212E0
9.218680958E0,3.011287994E0,-8.944200439E0,-3.674858093E-1,9.444661069E0
9.228747958E0,2.387086029E0,-8.985813904E0,-7.939489746E-1,9.331312137E0
9.238814958E0,1.608105927E0,-9.064699860E0,-1.161285095E0,9.279190228E0
9.248881958E0,7.908055115E-1,-9.241033173E0,-1.472338257E0,9.390944968E0
9.258948958E0,3.248245239E-2,-9.213191071E0,-1.901346130E0,9.407394003E0
9.269015958E0,-3.811074829E-1,-9.201964417E0,-2.561024323E0,9.559301105E0
9.279081958E0,-2.315684509E-1,-9.084309082E0,-3.250939636E0,9.651264371E0
9.289148958E0,2.308200073E-1,-8.907227325E0,-3.651057587E0,9.629236626E0
9.299215958E0,7.741900635E-1,-8.752748566E0,-3.477568359E0,9.450050762E0
9.309282958E0,1.247954865E0,-8.592731323E0,-2.895578613E0,9.152966647E0
9.319349958E0,1.878443756E0,-8.606802063E0,-2.110012207E0,9.058572968E0
9.329416958E0,2.200723572E0,-8.551117859E0,-1.406624908E0,8.941107007E0
9.339482167E0,2.292782135E0,-8.406967621E0,-8.788224792E-1,8.758212343E0
9.349549167E0,2.310894470E0,-8.314759369E0,-5.098397827E-1,8.644963460E0
9.359616167E0,2.261497192E0,-8.290659485E0,-2.730322266E-1,8.597903863E0
9.369683167E0,2.115401001E0,-8.178392944E0,-1.267863464E-1,8.448497341E0
9.379749167E0,1.948797455E0,-7.910749512E0,-9.280700684E-2,8.147783901E0
9.389816167E0,1.888921967E0,-7.649842072E0,-1.353186035E-1,7.880762719E0
9.399883167E0,1.921554108E0,-7.599097595E0,-1.746867371E-1,7.840227669E0
9.409950167E0,2.013013916E0,-7.866441650E0,-4.326004028E-2,8.120036989E0
9.420017167E0,2.090103607E0,-8.389603729E0,1.442999268E-1,8.647242699E0
9.430084167E0,2.186203766E0,-9.017398224E0,2.658471680E-1,9.282436768E0
9.440151167E0,2.378553772E0,-9.545649719E0,1.950444031E-1,9.839460805E0
9.450218167E0,2.730322266E0,-9.817334747E0,-1.863624573E-1,1.019163638E1
9.460285167E0,3.005300446E0,-9.810449066E0,-8.475375366E-1,1.029539030E1
9.470352167E0,3.048560486E0,-9.713001709E0,-1.570534058E0,1.030061651E1
9.480418167E0,2.830014954E0,-9.554481354E0,-2.170336761E0,1.019840479E1
9.490485167E0,2.355801086E0,-9.426497498E0,-2.456541595E0,1.002213802E1
9.500552167E0,1.721869354E0,-9.549691315E0,-2.169887695E0,9.943331981E0
9.510619167E0,1.435365143E0,-9.519005127E0,-1.477277985E0,9.739306030E0
9.520686167E0,1.791923676E0,-9.469158783E0,-7.328759766E-1,9.665043493E0
9.530753167E0,2.577789459E0,-9.740544434E0,-1.032852173E-1,1.007640175E1
9.540820167E0,3.363056488E0,-1.022014709E1,4.019142151E-1,1.076675859E1
9.550887167E0,3.929628296E0,-1.076097244E1,6.828799438E-1,1.147635968E1
9.560954167E0,4.180955658E0,-1.138592285E1,6.215075684E-1,1.214520074E1
9.571021167E0,3.884871368E0,-1.176613220E1,1.963916016E-1,1.239244375E1
9.581087167E0,3.107537842E0,-1.206086929E1,-4.406835938E-1,1.246256641E1
9.591154167E0,2.367027740E0,-1.273147476E1,-1.275347900E0,1.301229350E1
9.601221167E0,2.075583801E0,-1.346689545E1,-2.082020416E0,1.378405347E1
9.611288167E0,2.092798004E0,-1.357167755E1,-2.594853973E0,1.397510294E1
9.621355167E0,2.219584351E0,-1.301259018E1,-2.703527985E0,1.347453604E1
9.631422167E0,2.885250092E0,-1.258238480E1,-2.313139801E0,1.311456027E1
9.641489167E0,4.004023590E0,-1.263088394E1,-1.602567444E0,1.334689689E1
9.651556167E0,4.773124237E0,-1.244736557E1,-6.608757019E-1,1.334752341E1
9.661623167E0,4.901257782E0,-1.185579575E1,1.357676697E-1,1.282967862E1
9.671690167E0,4.645140381E0,-1.114432526E1,4.808001709E-1,1.208323150E1
9.681756167E0,4.401896210E0,-1.038315811E1,5.563929749E-1,1.129142311E1
9.691823167E0,3.966451721E0,-9.924062805E0,5.947132874E-1,1.070389862E1
9.701890167E0,3.337010651E0,-9.761500854E0,6.236032104E-1,1.033496105E1
9.711957167E0,2.427651672E0,-9.447753296E0,6.668632507E-1,9.777435327E0
9.722024167E0,1.345851288E0,-8.943302307E0,6.981481934E-1,9.070908595E0
9.732091167E0,7.388635254E-1,-8.456963654E0,9.833052063E-1,8.545937203E0
9.742158167E0,6.646179199E-2,-8.376580811E0,1.171763306E0,8.458401296E0
9.752225167E0,-1.522334290E-1,-9.147028656E0,8.753796387E-1,9.190081488E0
9.762292167E0,4.182302856E-1,-1.037791901E1,4.671784973E-1,1.039684448E1
9.772358167E0,1.271455994E0,-1.138981476E1,1.029559021E0,1.150671423E1
9.782425167E0,1.575473785E0,-1.215173035E1,1.788181458E0,1.238322498E1
9.792492167E0,1.867815857E0,-1.237701187E1,1.938618622E0,1.266638864E1
9.802559167E0,2.260748749E0,-1.198288147E1,1.590891724E0,1.229761642E1
9.812626167E0,2.334994354E0,-1.108609634E1,9.219328308E-1,1.136678015E1
9.822693167E0,2.106868744E0,-1.027149033E1,3.318598938E-1,1.049059295E1
9.832760167E0,1.859133911E0,-9.843979340E0,5.613327026E-2,1.001815647E1
9.842827167E0,1.616039429E0,-1.013048355E1,-2.580633545E-1,1.026181646E1
9.852894167E0,1.504970398E0,-1.046533722E1,-5.228627014E-1,1.058591538E1
9.862961167E0,1.882485352E0,-1.012225067E1,-4.564009094E-1,1.030592119E1
9.873027167E0,2.151475983E0,-1.011566437E1,-7.141648865E-1,1.036655902E1
9.883094167E0,1.886377258E0,-1.008497818E1,-1.171763306E0,1.032657897E1
9.893161167E0,2.002685394E0,-9.595645752E0,-1.517095184E0,9.919110040E0
9.903228167E0,2.841540985E0,-8.561596069E0,-1.555116119E0,9.153888167E0
9.913295167E0,2.992277527E0,-8.141868896E0,-1.697470093E0,8.838843739E0
9.923362167E0,1.714235229E0,-8.450976105E0,-1.595083008E0,8.769372232E0
9.933429167E0,8.503816223E-1,-8.844208374E0,-1.220112762E0,8.968380334E0
9.943496167E0,1.118623810E0,-8.604556732E0,-1.042282562E0,8.739340291E0
9.953563167E0,1.775906982E0,-8.463100891E0,-1.457818451E0,8.769444506E0
9.963630167E0,2.422262878E0,-8.235124969E0,-1.879940643E0,8.787423828E0
9.973696167E0,2.649939423E0,-8.111033020E0,-2.134112091E0,8.795764322E0
9.983763167E0,2.436483307E0,-8.030799866E0,-2.098037109E0,8.650546636E0
9.993830167E0,1.951042786E0,-7.723638611E0,-2.014061737E0,8.216909761E0
1.000389717E1,1.417851562E0,-7.198380890E0,-1.806144104E0,7.555736034E0
1.001396417E1,1.175505524E0,-6.943760376E0,-1.603615265E0,7.222825161E0
1.002403117E1,9.225315857E-1,-6.872957611E0,-1.258882141E0,7.047935520E0
1.003409817E1,8.081694031E-1,-6.774163055E0,-9.306147766E-1,6.885380654E0
1.004416517E1,7.779322815E-1,-6.719526672E0,-6.448590088E-1,6.795076194E0
1.005423217E1,6.267466736E-1,-6.722370758E0,-6.536906433E-1,6.783096008E0
1.006429817E1,1.097218323E-1,-6.546785889E0,-8.867559814E-1,6.607479135E0
1.007436517E1,-4.478686523E-1,-6.133495331E0,-1.251098328E0,6.275794637E0
1.008443217E1,-6.093827820E-1,-5.625451813E0,-1.586101685E0,5.876459310E0
1.009449917E1,-5.301974487E-1,-5.270539856E0,-1.905387726E0,5.629405128E0
1.010456617E1,-3.872447205E-1,-5.313350830E0,-2.366728363E0,5.829499006E0
1.011463317E1,-3.296145630E-1,-5.391638031E0,-2.802921295E0,6.085620281E0
1.012470017E1,-3.803590393E-1,-5.519921265E0,-3.232378235E0,6.408000688E0
1.013476717E1,-7.619155884E-2,-5.696853333E0,-3.998036041E0,6.960189310E0
1.014483417E1,3.656895447E-1,-5.755830688E0,-4.913532257E0,7.576682321E0
1.015490117E1,3.879931641E-1,-5.947282562E0,-5.417234802E0,8.054013998E0
1.016496717E1,-9.610015869E-2,-6.464157715E0,-5.441334686E0,8.450011442E0
1.017503417E1,-7.770341492E-1,-7.626640320E0,-5.627697144E0,9.510015761E0
1.018510117E1,-8.354127502E-1,-9.195228424E0,-6.233637085E0,1.114039369E1
1.019516817E1,6.915618896E-2,-1.068103867E1,-7.246281281E0,1.290728329E1
1.020523517E1,1.307231598E0,-1.182181641E1,-8.566984863E0,1.465801580E1
1.021530217E1,2.891237640E0,-1.279584091E1,-9.918823700E0,1.644615041E1
1.022536917E1,4.666246490E0,-1.337259155E1,-1.069675598E1,1.774882108E1
1.023543617E1,5.927373962E0,-1.313219147E1,-1.048105453E1,1.781686614E1
1.024550317E1,6.051465912E0,-1.194336365E1,-9.614955597E0,1.648367514E1
1.025556917E1,5.172493744E0,-1.107591751E1,-8.727002106E0,1.501969394E1
1.026563617E1,3.949237518E0,-1.054287598E1,-8.446635132E0,1.407459967E1
1.027570317E1,2.789000244E0,-1.010129425E1,-8.704249420E0,1.362272461E1
1.028577017E1,1.748663635E0,-1.012524445E1,-8.731492767E0,1.348396698E1
1.029583717E1,9.430389404E-1,-1.052176987E1,-7.173382874E0,1.276927505E1
1.030590417E1,9.351054382E-1,-1.039318726E1,-4.573289795E0,1.139332011E1
1.031597117E1,1.315913544E0,-1.001133133E1,-2.936593323E0,1.051579592E1
1.032603817E1,1.397344208E0,-1.049168243E1,-2.746039581E0,1.093474757E1
1.033610617E1,1.280137939E0,-1.202030365E1,-2.856958923E0,1.242129894E1
1.034617317E1,8.479866028E-1,-1.333921097E1,-1.804347839E0,1.348737564E1
1.035623917E1,6.885681152E-2,-1.317425400E1,-2.294728088E-1,1.317643227E1
1.036630617E1,-6.556365967E-1,-1.198273178E1,-4.278103638E-1,1.200827806E1
1.037637317E1,-1.455872498E0,-1.064930466E1,-1.576222229E0,1.086332044E1
1.038644017E1,-2.378553772E0,-8.820557556E0,-1.152453461E0,9.208034678E0
1.039650717E1,-3.116968231E0,-7.068301392E0,9.834548950E-2,7.725674556E0
1.040657417E1,-3.387904816E0,-6.532864838E0,-4.161346436E-2,7.359208769E0
1.041664117E1,-3.044069824E0,-6.942113800E0,-5.060975647E-1,7.597067846E0
1.042670817E1,-1.792971497E0,-7.718100128E0,-4.104464722E-1,7.934247455E0
1.043677517E1,3.397933960E-2,-8.780440979E0,1.658551025E-1,8.782073007E0
1.044684217E1,1.923050995E0,-1.020457947E1,9.776170349E-1,1.043011516E1
1.045690817E1,3.442391510E0,-1.140702896E1,1.570983124E0,1.201825100E1
1.046697517E1,4.475393372E0,-1.211460754E1,1.496438141E0,1.300123798E1
1.047704217E1,5.193749542E0,-1.234378098E1,1.012943573E0,1.343019053E1
1.048710917E1,5.182971954E0,-1.176478500E1,7.391629028E-1,1.287710085E1
1.049717617E1,4.756808167E0,-1.060245209E1,6.056405640E-1,1.163640901E1
1.050724317E1,3.939657440E0,-9.442364502E0,4.556524658E-1,1.024142409E1
1.051731017E1,2.965632935E0,-8.746461639E0,3.365002441E-1,9.241688283E0
1.052737717E1,2.556533661E0,-8.597671051E0,2.903961182E-1,8.974415957E0
1.053744417E1,2.384092255E0,-8.753796387E0,2.568658447E-1,9.076278264E0
1.054751017E1,2.025887146E0,-8.952283630E0,1.730401611E-1,9.180280160E0
1.055757717E1,1.675316162E0,-9.149423676E0,1.085243225E-1,9.302172615E0
1.056764417E1,1.334924011E0,-9.086255035E0,-7.409591675E-2,9.184091838E0
1.057771117E1,1.001118164E0,-8.877439270E0,-3.272195435E-1,8.939700118E0
1.058777817E1,8.622070313E-1,-8.677155762E0,-5.234614563E-1,8.735584982E0
1.059784517E1,7.018904114E-1,-8.700656891E0,-8.174501038E-1,8.767114985E0
1.060791217E1,5.547463989E-1,-8.833580475E0,-1.097218323E0,8.918731727E0
1.061797917E1,4.899311829E-1,-8.963510284E0,-1.295855255E0,9.069938810E0
1.062804617E1,4.046086121E-1,-9.011560364E0,-1.506317596E0,9.145541046E0
1.063811317E1,4.962181091E-1,-8.983718262E0,-1.570534058E0,9.133455176E0
1.064817917E1,7.162605286E-1,-9.119785309E0,-1.583257599E0,9.283868690E0
1.065824617E1,1.004561005E0,-8.976383514E0,-1.589095459E0,9.171141052E0
1.066831317E1,1.476230164E0,-8.776249695E0,-1.592837677E0,9.040959355E0
1.067838017E1,1.946252747E0,-8.550369415E0,-1.592388611E0,8.912486655E0
1.068844717E1,2.314936066E0,-8.416697388E0,-1.517843628E0,8.860224217E0
1.069851417E1,2.631677399E0,-8.483608246E0,-1.243464203E0,8.969032168E0
1.070858117E1,2.938090210E0,-8.456215210E0,-9.618997192E-1,9.003621540E0
1.071864817E1,3.225642242E0,-8.251740417E0,-7.072792053E-1,8.887982430E0
1.072871517E1,3.330723724E0,-8.153245239E0,-5.438191223E-1,8.824107190E0
1.073878217E1,3.275488586E0,-8.389903107E0,-3.321592712E-1,9.012748160E0
1.074884817E1,3.066223755E0,-8.514444122E0,-1.561253357E-1,9.051069658E0
1.075891517E1,2.739303589E0,-8.348738708E0,-1.616638184E-2,8.786665097E0
1.076898217E1,2.431693268E0,-8.175997925E0,4.146377563E-2,8.530052371E0
1.077904917E1,2.175875244E0,-8.092321930E0,3.472778320E-2,8.379815828E0
1.078911617E1,1.939965820E0,-8.019273834E0,-7.499404907E-2,8.250929906E0
1.079918317E1,1.764830017E0,-8.104895782E0,-2.408491516E-1,8.298311211E0
1.080925017E1,1.665885773E0,-8.421936493E0,-3.881428528E-1,8.593884138E0
1.081931717E1,1.663041687E0,-8.864566040E0,-5.559439087E-1,9.036332904E0
1.082938417E1,1.783840485E0,-9.316925354E0,-7.970924377E-1,9.519587243E0
1.083945117E1,2.097588043E0,-9.608219604E0,-1.097966766E0,9.895619768E0
1.084951717E1,2.373015289E0,-9.765692139E0,-1.416654053E0,1.014922919E1
1.085958417E1,2.528541870E0,-9.777068481E0,-1.707050171E0,1.024200236E1
1.086965117E1,2.584226074E0,-9.752968597E0,-1.885179749E0,1.026413774E1
1.087971817E1,2.556383972E0,-9.683513031E0,-1.778302002E0,1.017191632E1
1.088978517E1,2.371817780E0,-9.525142365E0,-1.434017944E0,9.920194762E0
1.089985217E1,2.298320618E0,-9.467661896E0,-1.005459137E0,9.794378363E0
1.090991917E1,2.472109222E0,-9.561666412E0,-5.272036743E-1,9.890133078E0
1.091998617E1,2.740650787E0,-9.889933777E0,-5.807922363E-2,1.026281297E1
1.093005317E1,3.062182159E0,-1.038196060E1,2.031275940E-1,1.082604851E1
1.094011917E1,3.459755402E0,-1.088237000E1,7.185058594E-3,1.141910398E1
1.095018617E1,3.680845642E0,-1.133877090E1,-5.983058167E-1,1.193626073E1
1.096025317E1,3.462749176E0,-1.166164948E1,-1.428329773E0,1.224846220E1
1.097032017E1,3.268602905E0,-1.210412933E1,-2.339784393E0,1.275414846E1
1.098038717E1,3.261717224E0,-1.260184433E1,-3.208577728E0,1.340672409E1
1.099045417E1,3.442840576E0,-1.289613235E1,-3.573818207E0,1.381794332E1
1.100052117E1,3.564687195E0,-1.260528717E1,-3.122207336E0,1.346656742E1
1.101058817E1,3.781735840E0,-1.224768082E1,-2.162852325E0,1.299942851E1
1.102065517E1,4.275259552E0,-1.194186676E1,-1.206341400E0,1.274132197E1
1.103072217E1,4.742138672E0,-1.163560364E1,-3.737727356E-1,1.257039607E1
1.104078817E1,5.082979889E0,-1.157587784E1,4.869374084E-1,1.265206467E1
1.105085517E1,5.255121918E0,-1.152603149E1,1.105151825E0,1.271562303E1
1.106092217E1,5.046006775E0,-1.092907288E1,1.326840820E0,1.211062859E1
1.107098917E1,4.464316406E0,-1.026714935E1,1.141376495E0,1.125376458E1
1.108105617E1,3.927981720E0,-9.801617432E0,8.048762512E-1,1.059002221E1
1.109112317E1,3.361559601E0,-9.576036530E0,5.786965942E-1,1.016540448E1
1.110119017E1,2.762355652E0,-9.323960724E0,4.342469788E-1,9.734239712E0
1.111125717E1,2.003433838E0,-8.618178406E0,8.119116211E-1,8.885153159E0
1.112132417E1,1.125659180E0,-8.305927734E0,1.037642212E0,8.445841905E0
1.113139117E1,5.580395508E-1,-9.067693634E0,7.577243042E-1,9.116393042E0
1.114145717E1,1.775308228E-1,-1.021490799E1,3.276686096E-1,1.022170383E1
1.115152417E1,1.188528442E-1,-1.148187332E1,4.472698975E-1,1.149119625E1
1.116159117E1,7.920030212E-1,-1.223630447E1,9.741741943E-1,1.230054598E1
1.117165817E1,9.885443115E-1,-1.261307098E1,1.356628876E0,1.272427685E1
1.118172517E1,1.045426025E0,-1.281739609E1,1.505718842E0,1.294780859E1
1.119179217E1,1.047072601E0,-1.232117798E1,1.425635376E0,1.244749871E1
1.120185917E1,1.164129181E0,-1.138397690E1,1.093925171E0,1.149551213E1
1.121192617E1,1.423988800E0,-1.032822235E1,7.087760925E-1,1.044998969E1
1.122199317E1,1.723366241E0,-9.806557159E0,3.411405945E-1,9.962676921E0
1.123205917E1,1.990111542E0,-9.595496063E0,1.710942078E-1,9.801191860E0
1.124212617E1,2.322869568E0,-9.769584045E0,-7.903564453E-2,1.004224786E1
1.125219317E1,2.586321716E0,-9.663454742E0,-4.926255798E-1,1.001569256E1
1.126226017E1,2.589165802E0,-9.316326599E0,-8.178991699E-1,9.703951767E0
1.127232717E1,2.115101624E0,-9.183253326E0,-1.046174469E0,9.481575689E0
1.128239417E1,1.970352631E0,-9.079968109E0,-1.084494781E0,9.354370063E0
1.129246117E1,2.367027740E0,-8.980275421E0,-1.420845337E0,9.395050209E0
1.130252817E1,2.483635254E0,-8.947044525E0,-1.914518738E0,9.480687307E0
1.131259517E1,2.651436310E0,-8.891210632E0,-2.355501709E0,9.572467253E0
1.132266217E1,2.463127899E0,-8.666378174E0,-2.620151367E0,9.382872848E0
1.133272717E1,1.971999207E0,-8.386609955E0,-2.615960083E0,9.003735589E0
1.134279417E1,1.475032654E0,-8.201295319E0,-2.306703186E0,8.646261957E0
1.135286117E1,1.572480011E0,-8.076155548E0,-2.170486450E0,8.509288646E0
1.136292817E1,2.388283539E0,-8.030350800E0,-1.708097992E0,8.550323443E0
1.137299517E1,2.342927856E0,-7.937394104E0,-1.230890350E0,8.366996304E0
1.138306217E1,1.789229279E0,-7.957901459E0,-1.171164551E0,8.240216226E0
1.139312917E1,1.193617859E0,-8.041876831E0,-8.818162537E-1,8.177658984E0
1.140319617E1,5.272036743E-1,-7.930658112E0,-6.628216553E-1,7.975751648E0
1.141326317E1,-7.185058594E-2,-7.461234283E0,-6.156697083E-1,7.486937206E0
1.142332917E1,-9.119036865E-1,-6.695875854E0,-5.993536377E-1,6.784213040E0
1.143339617E1,-3.601510620E-1,-6.168672180E0,-6.996450806E-1,6.218659702E0
1.144346317E1,-2.832110596E-1,-6.083798676E0,-1.134790192E0,6.195204888E0
1.145353017E1,-8.223898315E-1,-6.042334900E0,-1.604363708E0,6.305562543E0
1.146359717E1,-9.461824036E-1,-5.910459137E0,-2.168839874E0,6.366526113E0
1.147366417E1,-8.322692871E-1,-5.786217499E0,-2.820734253E0,6.490726218E0
1.148373117E1,-4.326004028E-1,-5.811963959E0,-3.321293335E0,6.707984614E0
1.149379817E1,-1.121168518E-1,-5.924380188E0,-3.676205292E0,6.973186943E0
1.150386517E1,-9.610015869E-2,-5.978567505E0,-3.868255920E0,7.121510269E0
1.151393217E1,-2.215393066E-2,-5.977070618E0,-3.987707520E0,7.185240095E0
1.152399817E1,-3.487747192E-2,-6.012995911E0,-3.987408142E0,7.215037072E0
1.153406517E1,-2.685415649E-1,-6.114335175E0,-3.991150360E0,7.306605942E0
1.154413217E1,-6.415658569E-1,-6.296955414E0,-4.205205231E0,7.599145035E0
1.155419917E1,-1.027912445E0,-6.831942902E0,-4.579127655E0,8.288573936E0
1.156426617E1,-9.521699524E-1,-7.864645386E0,-5.352718964E0,9.560903460E0
1.157433317E1,-6.242019653E-2,-9.522298279E0,-6.604565735E0,1.158871647E1
1.158440017E1,1.140927429E0,-1.107292374E1,-8.097411346E0,1.376515260E1
1.159446717E1,2.476599884E0,-1.189441544E1,-9.566905518E0,1.546403397E1
1.160453417E1,3.715872803E0,-1.171284302E1,-1.059302170E1,1.622376377E1
1.161460117E1,4.315974884E0,-1.144579834E1,-1.088955505E1,1.637731199E1
1.162466717E1,4.106859741E0,-1.135538635E1,-1.044423111E1,1.596537064E1
1.163473417E1,3.613635406E0,-1.088476501E1,-9.329050140E0,1.478403351E1
1.164480117E1,3.201542358E0,-9.984537048E0,-8.345894623E0,1.340129884E1
1.165486817E1,2.734962616E0,-9.260343018E0,-7.935597839E0,1.249830734E1
1.166493517E1,2.372566223E0,-8.694519653E0,-7.926466827E0,1.200219225E1
1.167500217E1,2.176923065E0,-8.690627747E0,-7.975265350E0,1.199461805E1
1.168506917E1,2.038311310E0,-9.539063416E0,-7.491770782E0,1.229939321E1
1.169513617E1,2.119741974E0,-1.052236862E1,-6.316265259E0,1.245426651E1
1.170520317E1,2.441572723E0,-1.123862915E1,-5.021158447E0,1.254910733E1
1.171526917E1,2.722089386E0,-1.145103745E1,-4.070485382E0,1.245411099E1
1.172533617E1,2.584675140E0,-1.180310532E1,-3.695365448E0,1.263525095E1
1.173540317E1,1.971999207E0,-1.283700531E1,-3.724554749E0,1.351109893E1
1.174547017E1,1.121018829E0,-1.406969193E1,-3.257226562E0,1.448524901E1
1.175553717E1,-3.921844482E-2,-1.438852890E1,-1.910177765E0,1.451482281E1
1.176560417E1,-1.109343109E0,-1.323891953E1,-1.016685791E0,1.332416160E1
1.177567117E1,-1.828896790E0,-1.090422455E1,-1.186881866E0,1.112005688E1
1.178573817E1,-2.317780151E0,-8.841364288E0,-1.213825836E0,9.220368782E0
1.179580517E1,-2.970572662E0,-7.336842957E0,-3.891906738E-1,7.924962832E0
1.180587217E1,-3.452420654E0,-6.609206085E0,1.451980591E-1,7.458008845E0
1.181593817E1,-3.475323029E0,-6.602619781E0,2.894979858E-1,7.467011934E0
1.182600517E1,-2.990331573E0,-7.048542480E0,5.243595886E-1,7.674567545E0
1.183607217E1,-1.917512512E0,-7.548802185E0,8.771759033E-1,7.837774316E0
1.184613917E1,-1.860630798E-1,-8.530460815E0,1.084195404E0,8.601096492E0
1.185620617E1,1.592238922E0,-9.886790314E0,1.280736694E0,1.009574831E1
1.186627317E1,3.099754028E0,-1.117516113E1,1.379231873E0,1.167882622E1
1.187634017E1,4.717440033E0,-1.196042816E1,1.154249725E0,1.290884870E1
1.188640717E1,5.385051727E0,-1.145043869E1,1.042581940E0,1.269638946E1
1.189647417E1,4.959486694E0,-1.027178970E1,9.520202637E-1,1.144606983E1
1.190654117E1,4.477339325E0,-9.447304230E0,6.765930176E-1,1.047644514E1
1.191660717E1,4.075425110E0,-8.748856659E0,6.463558960E-1,9.673125586E0
1.192667417E1,3.427871704E0,-8.433312836E0,7.512876892E-1,9.134303640E0
1.193674117E1,3.139271851E0,-8.640931091E0,6.945556641E-1,9.219713957E0
1.194680817E1,3.181484070E0,-8.793164520E0,6.069877625E-1,9.370699937E0
1.195687517E1,2.775528259E0,-8.672216034E0,4.408332825E-1,9.116206560E0
1.196694217E1,2.316133575E0,-8.530161438E0,2.055226135E-1,8.841400819E0
1.197700917E1,1.795216827E0,-8.475674744E0,-2.215393066E-2,8.663738028E0
1.198707617E1,1.347647552E0,-8.406368866E0,-3.791615295E-1,8.522144971E0
1.199714317E1,1.034349060E0,-8.657995605E0,-8.416996765E-1,8.760092707E0
1.200720917E1,9.443861389E-1,-8.949738922E0,-1.237326965E0,9.084088836E0
1.201727617E1,9.789642334E-1,-9.227261810E0,-1.514700165E0,9.401864075E0
1.202734317E1,1.230291595E0,-9.287885742E0,-1.684746552E0,9.519286208E0
1.203741017E1,1.263672180E0,-9.202114105E0,-1.624272308E0,9.429423732E0
1.204747717E1,1.215771790E0,-9.125623169E0,-1.564696198E0,9.338274651E0
1.205754417E1,1.258582764E0,-8.968599701E0,-1.529070282E0,9.184653891E0
1.206761117E1,1.509011993E0,-8.849746857E0,-1.579665070E0,9.115397872E0
1.207767817E1,1.902244263E0,-8.838669891E0,-1.623523865E0,9.185665377E0
1.208774517E1,2.162702637E0,-8.987011414E0,-1.579365692E0,9.377529143E0
1.209781217E1,2.282453613E0,-9.099727020E0,-1.443747711E0,9.492051085E0
1.210787817E1,2.275118866E0,-9.012159119E0,-1.335223389E0,9.390314123E0
1.211794517E1,2.202370148E0,-8.796457672E0,-1.254092102E0,9.154280356E0
1.212801217E1,2.147135010E0,-8.713979187E0,-1.134041748E0,9.045975498E0
1.213807917E1,1.957030334E0,-8.693771210E0,-1.014889526E0,8.968925595E0
1.214814617E1,1.694326630E0,-8.606652374E0,-8.770262146E-1,8.815576147E0
1.215821317E1,1.516646118E0,-8.542585602E0,-7.523355103E-1,8.708730845E0
1.216828017E1,1.463356934E0,-8.568032684E0,-5.315446472E-1,8.708337230E0
1.217834717E1,1.549427948E0,-8.596772919E0,-2.787203979E-1,8.739732069E0
1.218841417E1,1.526525574E0,-8.544232178E0,-1.550775146E-1,8.680911984E0
1.219848017E1,1.363514557E0,-8.478518829E0,-2.689906311E-1,8.591670934E0
1.220854717E1,1.253792725E0,-8.610244904E0,-6.093827820E-1,8.722365555E0
1.221861417E1,1.325044556E0,-9.006620636E0,-1.016835480E0,9.160180825E0
1.222868117E1,1.681303711E0,-9.365574188E0,-1.448537750E0,9.624916813E0
1.223874817E1,2.201921082E0,-9.466464386E0,-1.984573059E0,9.919724525E0
1.224881517E1,2.688110046E0,-9.572144623E0,-2.467169495E0,1.024396474E1
1.225888217E1,2.952610016E0,-9.560618591E0,-2.818039856E0,1.039541641E1
1.226894917E1,3.090623016E0,-9.613608398E0,-3.047213287E0,1.054793467E1
1.227901617E1,3.164120178E0,-9.815388794E0,-3.020269318E0,1.074595461E1
1.228908317E1,3.122506714E0,-9.865085449E0,-2.537822571E0,1.065413077E1
1.229914917E1,2.948718109E0,-9.689051514E0,-1.704505463E0,1.027024813E1
1.230921617E1,2.901715851E0,-9.425000610E0,-7.964936829E-1,9.893684530E0
1.231928317E1,3.196003876E0,-9.405690765E0,1.571731567E-1,9.935097531E0
1.232935017E1,3.786226501E0,-9.602531433E0,1.012943573E0,1.037160430E1
1.233941808E1,4.491410065E0,-9.935588837E0,1.553768921E0,1.101375902E1
1.234948508E1,5.037624207E0,-1.032687515E1,1.656455383E0,1.160886956E1
1.235955208E1,5.170098724E0,-1.062849792E1,1.189875641E0,1.187900219E1
1.236961908E1,5.213059387E0,-1.123428818E1,2.510279846E-1,1.238742241E1
1.237968608E1,5.251080322E0,-1.232492020E1,-8.378077698E-1,1.342309295E1
1.238975308E1,4.997208252E0,-1.334220474E1,-2.008223877E0,1.438817156E1
1.239981908E1,4.188589783E0,-1.359712463E1,-3.117267609E0,1.456514470E1
1.240988608E1,2.792892151E0,-1.304686890E1,-3.979175262E0,1.392317745E1
1.241995308E1,2.029180298E0,-1.246697479E1,-4.326602783E0,1.335149897E1
1.243002008E1,2.550995178E0,-1.223151443E1,-3.726500702E0,1.303857083E1
1.244008708E1,3.307372284E0,-1.198737213E1,-2.275418243E0,1.264172972E1
1.245015408E1,3.913012848E0,-1.149818939E1,-9.045689392E-1,1.217942009E1
1.246022108E1,4.194128265E0,-1.102337677E1,1.437011719E-1,1.179517687E1
1.247028808E1,4.162843323E0,-1.060110489E1,7.538323975E-1,1.141406819E1
1.248035508E1,3.842060394E0,-1.011521530E1,1.169967041E0,1.088337409E1
1.249042208E1,3.198698273E0,-9.671537933E0,1.522633667E0,1.029993835E1
1.250048808E1,2.602188721E0,-9.572294312E0,1.562450867E0,1.004198473E1
1.251055508E1,2.144739990E0,-9.557475128E0,1.324894867E0,9.884360721E0
1.252062208E1,1.441502380E0,-9.040899353E0,1.486558685E0,9.275001183E0
1.253068908E1,7.012916565E-1,-8.543932800E0,1.694176941E0,8.738468584E0
1.254075608E1,5.495072937E-1,-9.052874451E0,1.171014862E0,9.144822026E0
1.255082308E1,8.286767578E-1,-1.004351440E1,1.082848206E0,1.013565227E1
1.256089008E1,1.046922913E0,-1.106858276E1,1.597178650E0,1.123212142E1
1.257095708E1,1.415157166E0,-1.200907700E1,1.984872437E0,1.225399195E1
1.258102408E1,1.601968689E0,-1.248568588E1,1.742376709E0,1.270804990E1
1.259109008E1,1.545536041E0,-1.242266693E1,1.143921204E0,1.257059629E1
1.260115708E1,1.378782806E0,-1.193932205E1,4.062551880E-1,1.202553518E1
1.261122408E1,1.387614441E0,-1.123398880E1,-1.254391479E-1,1.132005800E1
1.262129108E1,1.545386353E0,-1.079016174E1,-4.442761230E-1,1.090931669E1
1.263135808E1,1.313069458E0,-1.055709641E1,-1.802252197E-1,1.063996791E1
1.264142508E1,1.165626068E0,-1.000639160E1,1.851649475E-1,1.007575521E1
1.265149208E1,1.250649261E0,-9.348659363E0,2.820135498E-1,9.436158493E0
1.266155908E1,1.385369110E0,-9.459429016E0,-1.722917175E-1,9.561889422E0
1.267162608E1,1.412762146E0,-9.586065674E0,-8.334667969E-1,9.725390423E0
1.268169308E1,1.331630859E0,-9.545350342E0,-1.311871948E0,9.726662424E0
1.269175908E1,1.239572296E0,-9.516759796E0,-1.696272583E0,9.745901558E0
1.270182608E1,1.146166534E0,-9.399852905E0,-1.893113251E0,9.656853015E0
1.271189308E1,1.287023621E0,-9.392218781E0,-1.897753601E0,9.668074894E0
1.272196008E1,1.475930786E0,-9.310039673E0,-1.931433563E0,9.622143524E0
1.273202708E1,1.777703247E0,-9.058263245E0,-2.099533997E0,9.466805419E0
1.274209408E1,1.882485352E0,-8.671317902E0,-2.382595367E0,9.187614812E0
1.275216108E1,1.758692780E0,-8.257578278E0,-2.476450195E0,8.798488783E0
1.276222808E1,1.770518188E0,-7.907905426E0,-1.759291534E0,8.292454979E0
1.277229508E1,2.032922516E0,-7.762258301E0,-1.488205261E0,8.160893504E0
1.278236208E1,2.064057770E0,-7.454947357E0,-1.197060699E0,7.827485477E0
1.279242808E1,1.763482819E0,-7.243736572E0,-1.318607941E0,7.571018299E0
1.280249508E1,1.344055023E0,-7.010820923E0,-1.266216888E0,7.249924077E0
1.281256208E1,7.761360168E-1,-6.783294067E0,-1.059796143E0,6.909314972E0
1.282262908E1,4.020639038E-1,-6.595135345E0,-9.707313538E-1,6.678307044E0
1.283269608E1,7.673043823E-1,-6.406377869E0,-8.669970703E-1,6.510154939E0
1.284276308E1,4.177812195E-1,-6.362369385E0,-9.340576172E-1,6.444125151E0
1.285283008E1,1.437011719E-2,-6.318061523E0,-1.249451752E0,6.440437687E0
1.286289708E1,-1.431024170E-1,-6.185886383E0,-1.759590912E0,6.432870963E0
1.287296408E1,-2.098635864E-1,-5.900280304E0,-2.057022400E0,6.252094972E0
1.288303008E1,-2.520758057E-1,-5.711822205E0,-2.450554047E0,6.220423639E0
1.289309708E1,-1.736389160E-1,-5.617368622E0,-2.691253510E0,6.231197811E0
1.290316408E1,1.234931946E-1,-5.491779785E0,-3.102298737E0,6.308657007E0
1.291323108E1,5.165757751E-1,-5.305417328E0,-3.754342804E0,6.519922810E0
1.292329808E1,7.695497131E-1,-5.181325378E0,-4.245920563E0,6.742861474E0
1.293336508E1,6.732998657E-1,-5.466482391E0,-4.580175476E0,7.163363026E0
1.294343208E1,4.599934387E-1,-6.070925446E0,-4.821324005E0,7.766137707E0
1.295349908E1,3.222798157E-1,-6.869664459E0,-5.018613739E0,8.513673586E0
1.296356608E1,1.216969299E-1,-7.642058258E0,-5.372477875E0,9.342343554E0
1.297363308E1,-6.481521606E-2,-8.505462799E0,-6.143674164E0,1.049246542E1
1.298369908E1,-1.396595764E-1,-9.555080109E0,-7.667655029E0,1.225202001E1
1.299376608E1,-2.275268555E-2,-1.086680237E1,-9.414672089E0,1.437789838E1
1.300383308E1,9.419911194E-1,-1.214454529E1,-1.078626984E1,1.627024722E1
1.301390008E1,2.516866150E0,-1.269959106E1,-1.116183884E1,1.709388413E1
1.302396708E1,3.783831482E0,-1.227716949E1,-1.045545776E1,1.656390258E1
1.303403408E1,4.076173553E0,-1.116603012E1,-9.461075592E0,1.519234580E1
1.304410108E1,3.681444397E0,-1.045515839E1,-8.816665649E0,1.416322572E1
1.305416808E1,3.393892365E0,-9.911488953E0,-8.489446106E0,1.348431733E1
1.306423508E1,3.226240997E0,-9.083860016E0,-8.056097260E0,1.256287574E1
1.307430108E1,3.096311188E0,-8.410859528E0,-7.430248718E0,1.164209161E1
1.308436808E1,2.993025970E0,-8.424780579E0,-6.630910950E0,1.113122241E1
1.309443508E1,2.949915619E0,-9.147028656E0,-5.785019989E0,1.121769101E1
1.310450208E1,2.858904877E0,-9.914482727E0,-4.937482452E0,1.143892643E1
1.311456908E1,2.537672882E0,-1.032522858E1,-3.599864044E0,1.122537972E1
1.312463608E1,2.067201233E0,-1.059077637E1,-2.705324249E0,1.112459637E1
1.313470308E1,1.420096893E0,-1.122620499E1,-2.366878052E0,1.156055644E1
1.314477008E1,3.438349915E-1,-1.254151978E1,-1.788181458E0,1.267302386E1
1.315483708E1,-1.221160583E0,-1.399424881E1,-1.348395996E0,1.411199506E1
1.316490408E1,-2.240840149E0,-1.464449661E1,-2.196831665E0,1.497693944E1
1.317497008E1,-2.314636688E0,-1.410681473E1,-4.185296631E0,1.489551854E1
1.318503708E1,-2.322719879E0,-1.232656677E1,-4.460574188E0,1.331300109E1
1.319510408E1,-2.981949005E0,-9.418713684E0,-1.875000916E0,1.005583491E1
1.320517108E1,-3.776945801E0,-7.513625336E0,-1.344204712E-1,8.410585838E0
1.321523808E1,-3.869902496E0,-6.777156830E0,1.227447510E-2,7.804239277E0
1.322530508E1,-3.167263641E0,-6.731651459E0,1.071771240E-1,7.440307606E0
1.323537208E1,-1.713486786E0,-7.170389099E0,5.911207581E-1,7.395940816E0
1.324543908E1,-3.832031250E-2,-8.142617340E0,1.156944122E0,8.224488148E0
1.325550608E1,1.575324097E0,-9.632169800E0,1.482517090E0,9.872091875E0
1.326557208E1,2.922672272E0,-1.107621689E1,1.547781372E0,1.155942131E1
1.327563908E1,4.103416901E0,-1.189770859E1,1.402733002E0,1.266337869E1
1.328570608E1,5.110073547E0,-1.229258743E1,1.182540894E0,1.336484046E1
1.329577308E1,5.502407684E0,-1.203976318E1,1.047821045E0,1.327894261E1
1.330584008E1,5.013674011E0,-1.099343903E1,9.479786682E-1,1.211987179E1
1.331590708E1,4.239034882E0,-9.727521515E0,7.020401001E-1,1.063423490E1
1.332597408E1,3.658542023E0,-8.709787903E0,3.927832031E-1,9.455136894E0
1.333604058E1,3.246149597E0,-8.026309204E0,2.438429260E-1,8.661327036E0
1.334610758E1,3.234773254E0,-8.031697998E0,1.740879822E-1,8.660383211E0
1.335617458E1,3.147355042E0,-8.866811371E0,8.053253174E-2,9.409180258E0
1.336624058E1,2.751877441E0,-9.437424774E0,1.312770081E-1,9.831329995E0
1.337630758E1,2.363435211E0,-9.304800568E0,1.243913269E-1,9.601073523E0
1.338637458E1,2.014361115E0,-8.978179779E0,-1.354682922E-1,9.202375482E0
1.339644158E1,1.564396820E0,-8.772208099E0,-5.013075256E-1,8.924700644E0
1.340650858E1,1.071322174E0,-8.680598602E0,-9.771679688E-1,8.800873851E0
1.341657558E1,5.098397827E-1,-8.759334869E0,-1.463806000E0,8.895426463E0
1.342664258E1,1.392105103E-2,-8.919352112E0,-1.943857727E0,9.128724925E0
1.343670958E1,-3.037184143E-1,-9.149273987E0,-2.277214508E0,9.433300869E0
1.344677658E1,-2.492317200E-1,-8.986412659E0,-2.415676575E0,9.308771253E0
1.345684358E1,1.149609375E-1,-8.619375916E0,-2.385888519E0,8.944233965E0
1.346690958E1,8.249345398E-1,-8.407416687E0,-2.224673767E0,8.735808246E0
1.347697658E1,1.422042847E0,-8.419092407E0,-1.955234070E0,8.759352892E0
1.348704358E1,1.562001801E0,-8.505462799E0,-1.656156006E0,8.804862280E0
1.349711058E1,1.783840485E0,-8.633446655E0,-1.347348175E0,8.918174428E0
1.350717758E1,2.074086914E0,-8.788224792E0,-1.005908203E0,9.085515002E0
1.351724458E1,2.380350037E0,-8.835376740E0,-6.134243774E-1,9.170945311E0
1.352731158E1,2.706521759E0,-8.771908722E0,-5.378315735E-1,9.195700379E0
1.353737858E1,2.942431183E0,-8.827892303E0,-3.844006348E-1,9.313288766E0
1.354744558E1,3.022065582E0,-8.844507751E0,-1.670526123E-1,9.348053505E0
1.355751158E1,2.895428925E0,-8.766819305E0,5.553451538E-2,9.232752216E0
1.356757858E1,2.652933197E0,-8.724307709E0,2.504292297E-1,9.122188024E0
1.357764558E1,2.294428711E0,-8.731941833E0,4.299060059E-1,9.038585645E0
1.358771258E1,1.849404144E0,-8.661588135E0,4.240681458E-1,8.866974597E0
1.359777958E1,1.489851837E0,-8.511899414E0,1.793270874E-1,8.643161941E0
1.360784658E1,1.150806885E0,-8.342451782E0,-2.284249878E-1,8.424549614E0
1.361791358E1,9.627978516E-1,-8.286617889E0,-7.286846924E-1,8.374126649E0
1.362798058E1,8.373587036E-1,-8.302185516E0,-1.259480896E0,8.438823738E0
1.363804758E1,9.026229858E-1,-8.563392334E0,-1.719025269E0,8.780743954E0
1.364811458E1,1.334924011E0,-9.135203247E0,-2.044448547E0,9.455883372E0
1.365818058E1,1.914818115E0,-9.830507355E0,-2.257605286E0,1.026655662E1
1.366824758E1,2.390379181E0,-1.032043854E1,-2.391726379E0,1.086028173E1
1.367831458E1,2.741249542E0,-1.044512924E1,-2.473905487E0,1.107860020E1
1.368838158E1,2.853965149E0,-1.020877075E1,-2.368824005E0,1.086165017E1
1.369844858E1,2.761457520E0,-9.860894165E0,-2.066452789E0,1.044667930E1
1.370851558E1,2.875071259E0,-9.581724701E0,-1.604812775E0,1.013167839E1
1.371858258E1,3.220103760E0,-9.416019287E0,-1.003213806E0,1.000184610E1
1.372864958E1,3.743265839E0,-9.618697815E0,-3.543132019E-1,1.032748395E1
1.373871658E1,4.359234924E0,-1.000474503E1,2.661465454E-1,1.091644109E1
1.374878258E1,4.690496063E0,-1.017838394E1,7.828720093E-1,1.123446223E1
1.375884958E1,4.463268585E0,-1.006222549E1,1.120270386E0,1.106454491E1
1.376891658E1,4.043541412E0,-1.045710434E1,1.073717194E0,1.126295374E1
1.377898358E1,3.671864319E0,-1.157363251E1,3.670367432E-1,1.214768591E1
1.378905058E1,2.957250366E0,-1.269510040E1,-7.864645386E-1,1.305869176E1
1.379911758E1,2.308050385E0,-1.326107346E1,-2.345771942E0,1.366330164E1
1.380918458E1,1.931732941E0,-1.314566345E1,-4.032763824E0,1.388536077E1
1.381925158E1,2.108665009E0,-1.275512558E1,-4.805906067E0,1.379262230E1
1.382931858E1,2.756517792E0,-1.264390686E1,-4.078418884E0,1.356835552E1
1.383938558E1,3.475472717E0,-1.269659729E1,-2.143841858E0,1.333711180E1
1.384945158E1,4.084107056E0,-1.251352798E1,-5.289999390E-1,1.317376765E1
1.385951858E1,4.624633026E0,-1.216160980E1,9.699829102E-2,1.301158685E1
1.386958558E1,5.060376892E0,-1.167422333E1,1.002914429E-2,1.272379681E1
1.387965258E1,5.274282074E0,-1.091904373E1,-1.986369324E-1,1.212777902E1
1.388971958E1,4.934638367E0,-9.888436890E0,-1.860630798E-1,1.105289371E1
1.389978658E1,4.333488464E0,-8.832083588E0,-8.666976929E-2,9.838309531E0
1.390985358E1,3.614084473E0,-8.070018311E0,-2.174977112E-1,8.845004656E0
1.391992058E1,2.205513611E0,-7.479346619E0,1.886077881E-2,7.797773519E0
1.392998758E1,8.782237244E-1,-7.323670349E0,7.030879211E-1,7.409571979E0
1.394005458E1,7.200027466E-1,-7.983647919E0,1.312171326E0,8.122735477E0
1.395012058E1,8.921447754E-1,-8.615783386E0,1.822310486E0,8.851466611E0
1.396018758E1,1.153201904E0,-9.483528900E0,2.245630188E0,9.813768388E0
1.397025458E1,1.469793549E0,-1.120899078E1,1.560953979E0,1.141220158E1
1.398032158E1,1.979783020E0,-1.264166153E1,7.072792053E-1,1.281527959E1
1.399038858E1,2.554138641E0,-1.300345917E1,1.663041687E-1,1.325297067E1
1.400045558E1,3.181783447E0,-1.224304047E1,1.160087585E-1,1.265026655E1
1.401052258E1,3.369193726E0,-1.135314102E1,2.468367004E-1,1.184509205E1
1.402058958E1,3.294049988E0,-1.049602341E1,1.868115234E-1,1.100237116E1
1.403065658E1,3.213367767E0,-9.535321198E0,1.692979431E-1,1.006363476E1
1.404072258E1,2.987337799E0,-9.329050140E0,5.957611084E-2,9.795862033E0
1.405078958E1,2.515818329E0,-9.753567352E0,-1.848655701E-1,1.007450213E1
1.406085658E1,1.970202942E0,-1.016371445E1,-5.586383057E-1,1.036797317E1
1.407092358E1,1.430275726E0,-1.036609360E1,-7.479945374E-1,1.049100000E1
1.408099058E1,1.324146423E0,-1.034378998E1,-8.285270691E-1,1.046106170E1
1.409105758E1,1.603315887E0,-1.009500732E1,-1.027014313E0,1.027300117E1
1.410112458E1,2.303110657E0,-9.634864197E0,-1.171314240E0,9.975314724E0
1.411119158E1,3.031196594E0,-9.431736603E0,-1.491498413E0,1.001850167E1
1.412125858E1,3.550317078E0,-9.485923920E0,-2.085313568E0,1.034098818E1
1.413132458E1,3.433709564E0,-9.294022980E0,-2.552641754E0,1.023157879E1
1.414139158E1,3.349434814E0,-8.931626587E0,-2.464026031E0,9.852111010E0
1.415145858E1,3.730542297E0,-8.496331787E0,-2.622546387E0,9.642735567E0
1.416152558E1,3.686234436E0,-8.102051697E0,-3.201242981E0,9.459361640E0
1.417159258E1,3.502865753E0,-7.787555695E0,-2.897973633E0,9.017446610E0
1.418165958E1,2.749781799E0,-7.361092529E0,-2.492317200E0,8.243702335E0
1.419172658E1,2.465672607E0,-6.950945435E0,-2.094145203E0,7.666852547E0
1.420179358E1,1.988165588E0,-6.734944611E0,-1.604812775E0,7.203312110E0
1.421186058E1,1.300495605E0,-6.539600830E0,-1.168919220E0,6.769345609E0
1.422192758E1,7.882608032E-1,-6.275400238E0,-8.339158630E-1,6.379452869E0
1.423199358E1,4.749623108E-1,-6.124214630E0,-9.032217407E-1,6.208655534E0
1.424206058E1,1.067280579E-1,-6.167474670E0,-1.147813110E0,6.274281602E0
1.425212758E1,-3.379971313E-1,-6.474486237E0,-1.437610474E0,6.640778415E0
1.426219458E1,-7.375163269E-1,-6.869664459E0,-1.855092316E0,7.153851244E0
1.427226158E1,-1.305585022E0,-7.059918823E0,-2.348166962E0,7.553866170E0
1.428232858E1,-1.592538300E0,-6.858886871E0,-2.811752930E0,7.581982715E0
1.429239558E1,-1.636995850E0,-6.392756195E0,-3.113824768E0,7.296779555E0
1.430246258E1,-1.400787048E0,-6.053262177E0,-3.363505554E0,7.065221649E0
1.431252958E1,-1.020128632E0,-5.921236725E0,-3.668421478E0,7.039816966E0
1.432259558E1,-5.655239868E-1,-5.808820496E0,-3.859873352E0,6.997201957E0
1.433266258E1,-3.228785706E-1,-5.751789093E0,-3.947740631E0,6.983694182E0
1.434273029E1,-4.472698975E-1,-5.829627228E0,-3.946393433E0,7.053979381E0
1.435279729E1,-6.096821594E-1,-6.151308289E0,-4.004173279E0,7.365032902E0
1.436286429E1,-3.885919189E-1,-6.537355499E0,-4.283193054E0,7.825200531E0
1.437293129E1,1.835183716E-1,-7.128027191E0,-4.968318329E0,8.690606288E0
1.438299829E1,7.336244202E-1,-8.311017151E0,-5.655539246E0,1.007950073E1
1.439306529E1,1.460063782E0,-9.469009094E0,-6.352639618E0,1.149564916E1
1.440313229E1,2.365830231E0,-1.067085983E1,-7.445816345E0,1.322514965E1
1.441319929E1,3.469934235E0,-1.178768738E1,-8.821306000E0,1.512631670E1
1.442326529E1,4.689897308E0,-1.250754044E1,-1.028002258E1,1.685563908E1
1.443333229E1,5.688770142E0,-1.271426056E1,-1.132365234E1,1.795103422E1
1.444339929E1,6.109844513E0,-1.212164291E1,-1.106558899E1,1.751318608E1
1.445346629E1,5.919440460E0,-1.097173416E1,-9.602381744E0,1.573608786E1
1.446353329E1,5.615572357E0,-9.981243896E0,-8.211174774E0,1.409195777E1
1.447360029E1,4.999303894E0,-9.203760681E0,-7.618706818E0,1.295171586E1
1.448366729E1,4.388723602E0,-8.768765259E0,-7.586823120E0,1.239806534E1
1.449373429E1,3.819158020E0,-8.774453430E0,-6.943161621E0,1.182304928E1
1.450380129E1,3.342100067E0,-9.175768890E0,-4.511917419E0,1.075740519E1
1.451386729E1,2.621947632E0,-9.722731476E0,-1.628912659E0,1.020095452E1
1.452393429E1,1.524878998E0,-1.044752426E1,-9.746232605E-1,1.060310849E1
1.453400129E1,6.780899048E-1,-1.181627792E1,-2.618804169E0,1.212197860E1
1.454406829E1,5.224136353E-2,-1.321137680E1,-4.715494080E0,1.402779707E1
1.455413529E1,-3.504212952E-1,-1.371298370E1,-4.412224731E0,1.440959556E1
1.456420229E1,-4.333488464E-1,-1.316347641E1,-2.822231140E0,1.346959135E1
1.457426929E1,-4.420307922E-1,-1.184950882E1,-2.245630188E0,1.206851712E1
1.458433629E1,-8.111631775E-1,-1.058119629E1,-1.917811890E0,1.078414128E1
1.459440329E1,-1.472787323E0,-9.295669556E0,-9.958790588E-1,9.464161351E0
1.460447029E1,-2.061063995E0,-8.468190308E0,-1.028361511E-1,8.716008671E0
1.461453629E1,-2.256707153E0,-7.953111420E0,4.026626587E-1,8.276886229E0
1.462460329E1,-1.987417145E0,-7.600444794E0,6.869215393E-1,7.885965329E0
1.463467029E1,-1.385369110E0,-7.614216156E0,8.117619324E-1,7.781676727E0
1.464473729E1,-5.189707947E-1,-8.110134888E0,1.062340851E0,8.195863998E0
1.465480429E1,6.822811890E-1,-8.876391449E0,1.445094910E0,9.019098185E0
1.466487129E1,1.952090607E0,-9.564061432E0,1.717678070E0,9.911223273E0
1.467493829E1,3.544479218E0,-1.050141220E1,1.764231262E0,1.122298994E1
1.468500529E1,5.431455231E0,-1.171164551E1,1.708846436E0,1.302242307E1
1.469507229E1,6.317762146E0,-1.195114746E1,1.590742035E0,1.361155775E1
1.470513829E1,5.501060486E0,-1.074315948E1,1.312919769E0,1.214087725E1
1.471520529E1,4.509223022E0,-9.164841614E0,9.318122864E-1,1.025649493E1
1.472527229E1,3.617976379E0,-7.884254608E0,6.721023560E-1,8.700743956E0
1.473533929E1,3.023861847E0,-7.618557129E0,5.207670593E-1,8.213242449E0
1.474540629E1,3.058589630E0,-8.254584503E0,4.879852295E-1,8.816533640E0
1.475547329E1,3.026256866E0,-8.853938141E0,5.207670593E-1,9.371320588E0
1.476554029E1,2.514770508E0,-9.065448303E0,4.728666687E-1,9.419661699E0
1.477560729E1,1.860780487E0,-9.111402740E0,2.266287231E-1,9.302232232E0
1.478567429E1,1.288670197E0,-9.352401581E0,-3.529660034E-1,9.447363188E0
1.479574129E1,8.819659424E-1,-9.404193878E0,-1.175954590E0,9.518381985E0
1.480580729E1,4.728666687E-1,-9.353150024E0,-1.900897064E0,9.556067597E0
1.481587429E1,1.751358032E-1,-9.397008820E0,-2.395019531E0,9.698998188E0
1.482594129E1,6.631210327E-2,-9.454788666E0,-2.636317749E0,9.815681193E0
1.483600829E1,2.698887634E-1,-9.339378662E0,-2.730471954E0,9.734079866E0
1.484607529E1,6.448590088E-1,-9.035809937E0,-2.609822845E0,9.427241359E0
1.485614229E1,1.140628052E0,-8.799601135E0,-2.320175171E0,9.171544326E0
1.486620929E1,1.739532623E0,-8.576714630E0,-2.027683411E0,8.983179148E0
1.487627629E1,2.375859375E0,-8.493637390E0,-1.781445465E0,8.997784829E0
1.488634329E1,2.880609741E0,-8.607700195E0,-1.525477753E0,9.204210857E0
1.489640929E1,3.335214386E0,-8.691825256E0,-1.209185486E0,9.387950300E0
1.490647629E1,3.492237854E0,-8.778644714E0,-8.544232178E-1,9.486325278E0
1.491654329E1,3.385060730E0,-8.796307983E0,-5.010081482E-1,9.438468067E0
1.492661029E1,2.981050873E0,-8.697812805E0,-1.297801208E-1,9.195404003E0
1.493667729E1,2.381397858E0,-8.551566925E0,4.137396240E-1,8.886592885E0
1.494674429E1,1.794169006E0,-8.437504120E0,6.626719666E-1,8.651569357E0
1.495681129E1,1.364113312E0,-8.409961395E0,4.420307922E-1,8.531333250E0
1.496687829E1,1.272803192E0,-8.248596954E0,2.541714478E-1,8.350088790E0
1.497694529E1,1.310824127E0,-8.131839752E0,-3.532653809E-2,8.236888102E0
1.498701229E1,1.497635651E0,-8.146060181E0,-3.291654968E-1,8.289122929E0
1.499707829E1,1.821112976E0,-8.301437073E0,-4.596940613E-1,8.511264805E0
1.500714529E1,2.018552399E0,-8.603209534E0,-4.447251892E-1,8.848025122E0
1.501721229E1,1.909279633E0,-8.984466705E0,-4.328997803E-1,9.195291888E0
1.502727929E1,1.575773163E0,-9.205407257E0,-6.182144165E-1,9.359742138E0
1.503734629E1,1.538650360E0,-9.410929871E0,-1.060694275E0,9.594692194E0
1.504741329E1,1.708846436E0,-9.711055756E0,-1.637295227E0,9.995273668E0
1.505748029E1,1.805096283E0,-9.920769653E0,-2.146386566E0,1.030955956E1
1.506754729E1,1.955084381E0,-9.994416504E0,-2.540816345E0,1.049602134E1
1.507761429E1,2.097737732E0,-9.765841827E0,-2.905907135E0,1.040271438E1
1.508768029E1,2.228715363E0,-9.478738861E0,-3.064577179E0,1.020809952E1
1.509774729E1,2.588567047E0,-9.266480255E0,-2.806513824E0,1.002221809E1
1.510781429E1,3.253184967E0,-9.481433258E0,-1.866917725E0,1.019638028E1
1.511788129E1,3.989952850E0,-1.012404694E1,-4.263134766E-1,1.089026140E1
1.512794829E1,4.500241699E0,-1.083417023E1,1.000369720E0,1.177421587E1
1.513801529E1,4.801265717E0,-1.128967300E1,1.986219635E0,1.242794985E1
1.514808229E1,4.837640076E0,-1.149115402E1,2.340682526E0,1.268574700E1
1.515814929E1,4.622836761E0,-1.163036453E1,1.670675812E0,1.262644671E1
1.516821629E1,4.238885193E0,-1.188962540E1,1.742376709E-1,1.262385434E1
1.517828329E1,3.974684601E0,-1.220427109E1,-1.713786163E0,1.294910860E1
1.518834929E1,3.830234985E0,-1.255050110E1,-3.760180664E0,1.365008192E1
1.519841629E1,3.474574585E0,-1.269195694E1,-5.788911896E0,1.437601963E1
1.520848329E1,3.193758545E0,-1.253373596E1,-6.537355499E0,1.449246866E1
1.521855029E1,3.420387268E0,-1.232297424E1,-5.074297943E0,1.375875150E1
1.522861729E1,4.058809662E0,-1.219199661E1,-2.963686981E0,1.318719674E1
1.523868429E1,4.508175201E0,-1.184696411E1,-1.312021637E0,1.274345334E1
1.524875129E1,4.679868164E0,-1.106648712E1,2.291734314E-1,1.201752153E1
1.525881829E1,4.647834778E0,-1.016610947E1,1.551523590E0,1.128536110E1
1.526888529E1,4.706662445E0,-9.372160492E0,2.173330536E0,1.071043553E1
1.527895129E1,4.670737152E0,-8.787326660E0,2.327958984E0,1.022019023E1
1.528901829E1,4.239334259E0,-8.504864044E0,2.867437134E0,9.926069871E0
1.529908529E1,3.485801239E0,-8.779542847E0,3.265160065E0,9.994621210E0
1.530915229E1,2.809058533E0,-9.571396179E0,3.250340881E0,1.049128927E1
1.531921929E1,1.852846985E0,-9.982291718E0,3.197051697E0,1.064426275E1
1.532928629E1,7.286846924E-1,-1.036175262E1,2.644251251E0,1.071862694E1
1.533935267E1,2.859054565E-2,-1.134805161E1,1.579814758E0,1.145752623E1
1.534941967E1,5.538482666E-3,-1.260603561E1,5.423222351E-1,1.261769702E1
1.535948667E1,2.841091919E-1,-1.354533234E1,1.968406677E-1,1.354974141E1
1.536955367E1,5.287005615E-1,-1.341255844E1,4.885839844E-1,1.343186370E1
1.537961967E1,6.641688538E-1,-1.199800003E1,1.002914429E0,1.205814921E1
1.538968667E1,8.178991699E-1,-1.069436096E1,1.187330933E0,1.079111070E1
1.539975367E1,1.037791901E0,-1.000115250E1,9.174421692E-1,1.009662139E1
1.540982067E1,1.224453735E0,-9.688452759E0,5.888754272E-1,9.783260095E0
1.541988767E1,1.299148407E0,-9.735455017E0,3.192860413E-1,9.826943296E0
1.542995467E1,1.491648102E0,-9.608668671E0,2.417472839E-1,9.726765620E0
1.544002167E1,1.720671844E0,-9.454788666E0,-1.026864624E-1,9.610633945E0
1.545008867E1,1.769170990E0,-9.582922211E0,-6.286926270E-1,9.765122555E0
1.546015567E1,1.678759003E0,-9.759105835E0,-1.433868256E0,1.000571620E1
1.547022167E1,1.511107635E0,-1.007405090E1,-2.209255829E0,1.042356749E1
1.548028867E1,1.698068848E0,-9.977202301E0,-2.190993805E0,1.035511745E1
1.549035567E1,2.054477692E0,-9.372160492E0,-2.062860260E0,9.813952482E0
1.550042267E1,2.372865601E0,-8.928632812E0,-2.374512177E0,9.538830281E0
1.551048967E1,2.504142609E0,-8.698112183E0,-2.689457245E0,9.442513755E0
1.552055667E1,2.462529144E0,-8.436755676E0,-2.887794800E0,9.251067773E0
1.553062367E1,2.425556030E0,-8.255482635E0,-2.642904053E0,9.001180891E0
1.554069067E1,2.186652832E0,-8.109536133E0,-2.171833649E0,8.675418624E0
1.555075767E1,2.079326019E0,-8.021219788E0,-1.603166199E0,8.440006246E0
1.556082367E1,1.827100525E0,-7.876171417E0,-1.297352142E0,8.188741973E0
1.557089067E1,1.584305420E0,-7.793992310E0,-9.785151672E-1,8.013353338E0
1.558095767E1,1.220412140E0,-7.646997986E0,-8.617579651E-1,7.791573062E0
1.559102467E1,1.294657745E0,-7.482789459E0,-8.641529846E-1,7.642973057E0
1.560109167E1,1.285227356E0,-7.312144318E0,-1.020727386E0,7.494074211E0
1.561115867E1,8.511300659E-1,-7.118147736E0,-1.405427399E0,7.305318319E0
1.562122567E1,3.778143311E-1,-6.828050995E0,-1.578467560E0,7.018303491E0
1.563129267E1,-2.963836670E-2,-6.609804840E0,-1.825453949E0,6.857308552E0
1.564135967E1,-4.290078735E-1,-6.475234680E0,-2.223326569E0,6.859729801E0
1.565142667E1,-6.156697083E-1,-6.430926819E0,-2.471211090E0,6.916845610E0
1.566149267E1,-5.625302124E-1,-6.308182068E0,-2.546205139E0,6.825889089E0
1.567155967E1,-4.810995483E-1,-6.117478638E0,-2.595452728E0,6.662685384E0
1.568162667E1,-5.791456604E-1,-5.920338593E0,-2.642155609E0,6.508978799E0
1.569169367E1,-7.351213074E-1,-5.663173370E0,-2.671793976E0,6.304793336E0
1.570176067E1,-8.771759033E-1,-5.567671967E0,-2.790796509E0,6.289431918E0
1.571182767E1,-7.872129822E-1,-5.784870300E0,-3.228785706E0,6.671542985E0
1.572189467E1,-3.758683777E-1,-5.802383881E0,-3.790268097E0,6.940826174E0
1.573196167E1,1.930984497E-2,-5.658982086E0,-4.168681183E0,7.028680810E0
1.574202867E1,2.565664673E-1,-5.487588501E0,-4.502786407E0,7.103135881E0
1.575209467E1,1.136137390E-1,-5.924380188E0,-4.998405762E0,7.752112541E0
1.576216167E1,-6.765930176E-2,-7.218588867E0,-5.733227692E0,9.218595488E0
1.577222867E1,5.557942200E-1,-8.886420593E0,-6.715335388E0,1.115226917E1
1.578229567E1,1.419947205E0,-1.038091278E1,-7.958949280E0,1.315767737E1
1.579236267E1,2.273172913E0,-1.152243896E1,-9.303153992E0,1.498274304E1
1.580242967E1,3.187920685E0,-1.201865707E1,-1.032313293E1,1.616100336E1
1.581249667E1,4.118086395E0,-1.184456909E1,-1.073178314E1,1.650526043E1
1.582256367E1,4.493505707E0,-1.143382324E1,-1.051009415E1,1.616743599E1
1.583263067E1,4.345912628E0,-1.059870987E1,-9.504185944E0,1.488452747E1
1.584269767E1,3.904480591E0,-9.685009918E0,-8.404871979E0,1.340471032E1
1.585276367E1,3.413800964E0,-9.462422791E0,-7.766449585E0,1.270862783E1
1.586283067E1,2.844385071E0,-9.945168915E0,-7.510631561E0,1.278305510E1
1.587289767E1,1.979483643E0,-1.085018692E1,-7.214996338E0,1.317957070E1
1.588296467E1,1.164129181E0,-1.168395309E1,-6.061944122E0,1.321427725E1
1.589303167E1,9.226812744E-1,-1.184756287E1,-4.071682892E0,1.256163557E1
1.590309867E1,1.080902252E0,-1.130479156E1,-2.745141449E0,1.168342688E1
1.591316567E1,9.889933777E-1,-1.154923325E1,-3.020269318E0,1.197851924E1
1.592323267E1,9.581575012E-1,-1.316557205E1,-4.492008820E0,1.394376192E1
1.593329967E1,3.423381042E-1,-1.447789307E1,-4.684807892E0,1.522084124E1
1.594336667E1,-7.155120850E-1,-1.444406342E1,-3.136727142E0,1.479803982E1
1.595343267E1,-7.699987793E-1,-1.274764114E1,-2.750081177E0,1.306362122E1
1.596349967E1,-4.996609497E-1,-1.024364822E1,-2.881657562E0,1.065297800E1
1.597356667E1,-8.116122437E-1,-7.739954681E0,-1.580413513E0,7.941241702E0
1.598363367E1,-1.707199860E0,-5.893694000E0,4.415817261E-2,6.136131540E0
1.599370067E1,-2.153272247E0,-5.340444489E0,1.235081635E0,5.889172722E0
1.600376767E1,-2.101929016E0,-5.551355896E0,1.825753326E0,6.210397176E0
1.601383467E1,-1.663191376E0,-6.206543427E0,1.934277649E0,6.710351472E0
1.602390167E1,-8.180488586E-1,-7.404651947E0,1.784439240E0,7.660437180E0
1.603396867E1,2.939886475E-1,-8.948391724E0,1.541195068E0,9.084900990E0
1.604403467E1,1.514101410E0,-1.053464310E1,1.469793549E0,1.074390531E1
1.605410167E1,2.768941956E0,-1.195219528E1,1.517693939E0,1.236225734E1
1.606416867E1,3.968247986E0,-1.289298889E1,1.332079926E0,1.355546353E1
1.607423567E1,4.654271393E0,-1.282278488E1,1.163081360E0,1.369082951E1
1.608430267E1,4.137695618E0,-1.158006912E1,1.085392914E0,1.234490193E1
1.609436967E1,3.363804932E0,-9.966724091E0,9.267228699E-1,1.055981004E1
1.610443667E1,2.726280670E0,-8.869056702E0,6.491999817E-1,9.301302795E0
1.611450367E1,2.421364746E0,-8.569978638E0,4.254153442E-1,8.915633421E0
1.612457067E1,2.173779602E0,-8.748407593E0,1.050814819E-1,9.015042722E0
1.613463667E1,1.896556091E0,-8.874295807E0,-1.083746338E-1,9.075340001E0
1.614470367E1,1.706301727E0,-8.987011414E0,-2.990780640E-1,9.152447073E0
1.615477067E1,1.479972382E0,-8.996441803E0,-4.980143738E-1,9.130952945E0
1.616483767E1,1.382674713E0,-8.955427094E0,-5.837860107E-1,9.080323226E0
1.617490467E1,1.334624634E0,-8.876241760E0,-6.885681152E-1,9.002389502E0
1.618497167E1,1.197210388E0,-8.844208374E0,-8.348139954E-1,8.963830034E0
1.619503867E1,1.266815643E0,-8.638386383E0,-1.015188904E0,8.789604638E0
1.620510567E1,1.362317047E0,-8.624016266E0,-1.182540894E0,8.810673485E0
1.621517267E1,1.282982025E0,-8.750054169E0,-1.406325531E0,8.954732957E0
1.622523867E1,1.222058716E0,-8.799301758E0,-1.577719116E0,9.022767676E0
1.623530567E1,1.339714050E0,-8.904532928E0,-1.638193359E0,9.152552534E0
1.624537267E1,1.601369934E0,-9.103020172E0,-1.634900208E0,9.386280446E0
1.625543967E1,1.691033478E0,-9.338929596E0,-1.465153198E0,9.603222069E0
1.626550667E1,1.746717682E0,-9.416917419E0,-1.215322723E0,9.654344393E0
1.627557367E1,1.785786438E0,-9.329199829E0,-1.016985168E0,9.552866663E0
1.628564067E1,1.999392242E0,-9.215586090E0,-8.249345398E-1,9.465997746E0
1.629570767E1,2.181264038E0,-8.916807404E0,-7.461982727E-1,9.210004285E0
1.630577467E1,2.144739990E0,-8.608598328E0,-8.427474976E-1,8.911683238E0
1.631584167E1,2.016905823E0,-8.372988281E0,-1.010847931E0,8.671600509E0
1.632590767E1,1.960024109E0,-8.357420654E0,-1.180594940E0,8.664985800E0
1.633597467E1,2.103874969E0,-8.400531006E0,-1.464105377E0,8.782870580E0
1.634604229E1,2.125280457E0,-8.245303802E0,-1.528321838E0,8.650873913E0
1.635610929E1,1.994302826E0,-8.194709015E0,-1.396895142E0,8.548790303E0
1.636617629E1,1.960772552E0,-8.351882172E0,-1.208287354E0,8.663632214E0
1.637624329E1,1.778302002E0,-8.588989105E0,-9.265731812E-1,8.819956333E0
1.638631029E1,1.614392853E0,-8.791967010E0,-6.926097107E-1,8.965749071E0
1.639637729E1,1.569785614E0,-8.929381256E0,-5.767506409E-1,9.084641864E0
1.640644429E1,1.652713165E0,-9.071136475E0,-6.640191650E-1,9.244344174E0
1.641651029E1,1.916913757E0,-9.139993286E0,-9.125024414E-1,9.383320112E0
1.642657729E1,2.466271362E0,-9.191186829E0,-1.272503815E0,9.601024722E0
1.643664429E1,3.021017761E0,-9.346264343E0,-1.616338806E0,9.954484247E0
1.644671129E1,3.320844269E0,-9.516759796E0,-1.934277649E0,1.026343771E1
1.645677829E1,3.324885864E0,-9.489815826E0,-2.271376648E0,1.030876434E1
1.646684529E1,2.939138031E0,-9.091194763E0,-2.539169769E0,9.886138665E0
1.647691229E1,2.434836731E0,-8.818461914E0,-2.446662140E0,9.469944882E0
1.648697929E1,2.486629028E0,-9.440119171E0,-1.958976288E0,9.956744548E0
1.649704629E1,2.903212738E0,-1.039947418E1,-1.047521667E0,1.084781126E1
1.650711329E1,3.531905365E0,-1.101559296E1,-9.744735718E-2,1.156836806E1
1.651717929E1,4.076323242E0,-1.160177399E1,6.357279968E-1,1.231347721E1
1.652724629E1,4.147724762E0,-1.195488968E1,1.035546570E0,1.269627365E1
1.653731329E1,3.632346497E0,-1.220442078E1,9.636959839E-1,1.276990750E1
1.654738029E1,3.026107178E0,-1.283341278E1,4.568499756E-1,1.319327557E1
1.655744729E1,2.766846313E0,-1.382465149E1,-4.233197021E-1,1.410516313E1
1.656751429E1,2.497556305E0,-1.438763077E1,-1.535656586E0,1.468332210E1
1.657758129E1,2.076032867E0,-1.405442368E1,-2.612068176E0,1.444505581E1
1.658764829E1,1.695374451E0,-1.321167618E1,-3.229534149E0,1.370593203E1
1.659771529E1,2.259850616E0,-1.252550308E1,-2.594105530E0,1.298940090E1
1.660778129E1,3.149001617E0,-1.204111038E1,-1.031055908E0,1.248869996E1
1.661784829E1,3.582649841E0,-1.162213165E1,2.528242493E-1,1.216442535E1
1.662791529E1,3.723656616E0,-1.110810059E1,6.439608765E-1,1.173329463E1
1.663798229E1,3.822600861E0,-1.062730042E1,2.779719543E-1,1.129730321E1
1.664804929E1,3.859424286E0,-1.014215927E1,2.963836670E-2,1.085170166E1
1.665811629E1,3.492836609E0,-9.594448242E0,4.550537109E-2,1.021055412E1
1.666818329E1,2.746338959E0,-9.145831146E0,2.179467773E-1,9.551759305E0
