"Time (s)","Acceleration x (m/s^2)","Acceleration y (m/s^2)","Acceleration z (m/s^2)","Absolute acceleration (m/s^2)"
5.476874998E-3,-5.816454620E0,4.220772858E0,6.043083344E0,9.389617892E0
1.554387500E-2,-5.802383881E0,4.249064026E0,6.079757080E0,9.417305875E0
2.560987500E-2,-5.910908203E0,4.287983093E0,6.195616150E0,9.576601395E0
3.567587500E-2,-6.028413849E0,4.304448853E0,6.383475494E0,9.778487247E0
4.574287499E-2,-5.945037231E0,4.177662506E0,6.671925659E0,9.864629932E0
5.580887500E-2,-5.615871735E0,4.001329193E0,7.044800262E0,9.857883210E0
6.587587500E-2,-5.241949310E0,3.878883820E0,7.422764282E0,9.880344217E0
7.594187499E-2,-4.847220154E0,3.835923157E0,7.773035889E0,9.931260575E0
8.600787500E-2,-4.461023254E0,3.791315918E0,8.107889557E0,1.000063388E1
9.607487500E-2,-4.229604492E0,3.771557007E0,8.429271240E0,1.015710638E1
1.061408750E-1,-4.330045624E0,3.816463623E0,8.620124359E0,1.037406544E1
1.162078750E-1,-4.718038788E0,3.837569733E0,8.615334320E0,1.054565393E1
1.262738750E-1,-5.079986115E0,3.760330353E0,8.615484009E0,1.068517234E1
1.363408750E-1,-5.131479034E0,3.635939026E0,8.643026733E0,1.068896818E1
1.464068750E-1,-5.004542999E0,3.548820190E0,8.543932800E0,1.051847722E1
1.564728750E-1,-4.771477661E0,3.582500153E0,8.275690613E0,1.020237039E1
1.665398750E-1,-4.625082092E0,3.741319885E0,7.938741302E0,9.920306059E0
1.766058750E-1,-4.402944031E0,3.825145569E0,7.694898376E0,9.655522554E0
1.866728750E-1,-4.182153168E0,3.871549072E0,7.569309540E0,9.474900751E0
1.967388750E-1,-4.023483124E0,3.859873352E0,7.475754089E0,9.325981876E0
2.068058750E-1,-3.673361206E0,3.662882996E0,7.542365570E0,9.154101419E0
2.168718750E-1,-3.541186066E0,3.718417511E0,7.671846313E0,9.231676630E0
2.269378750E-1,-3.415447540E0,3.741918640E0,8.295898590E0,9.720554019E0
2.370048750E-1,-3.419339447E0,3.741918640E0,9.094188538E0,1.041144094E1
2.470708750E-1,-3.268902283E0,3.788172455E0,9.485325165E0,1.072414874E1
2.571378750E-1,-3.132984924E0,3.758983154E0,9.700128479E0,1.086453135E1
2.672038750E-1,-3.198548584E0,3.850592651E0,9.745484161E0,1.095592252E1
2.772698750E-1,-3.307521973E0,3.789669342E0,9.656119995E0,1.088769712E1
2.873368750E-1,-3.239413605E0,3.481011200E0,9.317973175E0,1.046115976E1
2.974028750E-1,-3.276835785E0,3.069816284E0,8.801247711E0,9.880454749E0
3.074698750E-1,-3.381468201E0,2.858006744E0,8.345445557E0,9.447168427E0
3.175358750E-1,-3.545527039E0,2.944826202E0,8.126750336E0,9.342742336E0
3.276028750E-1,-3.657344513E0,3.180286560E0,8.174051971E0,9.502921505E0
3.376688750E-1,-3.561094666E0,3.341800690E0,8.339308319E0,9.664010053E0
3.477348750E-1,-3.414100342E0,3.484304352E0,8.600215759E0,9.887374225E0
3.578018750E-1,-3.188220062E0,3.500470734E0,8.900790710E0,1.008177156E1
3.678678750E-1,-2.942131805E0,3.366499329E0,9.073980560E0,1.011566016E1
3.779348750E-1,-2.692900085E0,3.078797607E0,9.131610718E0,1.000584928E1
3.880008750E-1,-2.490221558E0,2.802472229E0,9.126371613E0,9.866393100E0
3.980678750E-1,-2.427202606E0,2.692750397E0,9.100475464E0,9.795961967E0
4.081338750E-1,-2.468965759E0,2.717149658E0,9.123228149E0,9.834225239E0
4.181998750E-1,-2.662213898E0,2.794987793E0,9.235494690E0,1.000968040E1
4.282668750E-1,-2.807112579E0,2.913541260E0,9.399104462E0,1.023287684E1
4.383328750E-1,-2.793939972E0,2.928510132E0,9.506580963E0,1.033234503E1
4.483998750E-1,-2.714604950E0,2.921025696E0,9.579778748E0,1.037659058E1
4.584658750E-1,-2.566562805E0,2.927612000E0,9.557475128E0,1.032005269E1
4.685318750E-1,-2.267185364E0,2.966531067E0,9.492959290E0,1.020081919E1
4.785988750E-1,-2.008822632E0,3.044518890E0,9.420959015E0,1.010242211E1
4.886648750E-1,-1.863175507E0,3.103196869E0,9.344168701E0,1.002071567E1
4.987318750E-1,-1.784439240E0,3.094215546E0,9.227860565E0,9.895039356E0
5.087978750E-1,-1.733994141E0,3.093167725E0,9.156009979E0,9.818703631E0
5.188648750E-1,-1.707499237E0,3.078498230E0,9.053922272E0,9.714227375E0
5.289308750E-1,-1.702409821E0,3.040477295E0,8.823251953E0,9.486436444E0
5.389968750E-1,-1.697021027E0,2.983445892E0,8.631051636E0,9.288481151E0
5.490638750E-1,-1.595981140E0,2.968327332E0,8.547225952E0,9.187665341E0
5.591298750E-1,-1.501377869E0,2.977158966E0,8.441845093E0,9.076472860E0
5.691968750E-1,-1.414857788E0,3.056044922E0,8.357570343E0,9.010561312E0
5.792628750E-1,-1.359922028E0,3.281925201E0,8.448132019E0,9.164679785E0
5.893298750E-1,-1.251547394E0,3.513493652E0,8.680897980E0,9.448227255E0
5.993958750E-1,-1.216969299E0,3.611988831E0,9.186247101E0,9.945582607E0
6.094618750E-1,-1.103205872E0,3.562441864E0,9.768985291E0,1.045663085E1
6.195288750E-1,-8.024812317E-1,3.325035553E0,9.864187317E0,1.044040368E1
6.295948750E-1,-5.457650757E-1,3.035088501E0,9.857750702E0,1.032883685E1
6.396618750E-1,-2.987786865E-1,2.775827637E0,9.814340973E0,1.020371386E1
6.497278750E-1,-1.052311707E-1,2.608026581E0,9.489366760E0,9.841796470E0
6.597938750E-1,-8.262817383E-2,2.691702576E0,9.185348969E0,9.571976068E0
6.698608750E-1,-2.103126526E-1,2.965183868E0,9.045390015E0,9.521324871E0
6.799268750E-1,-1.567240906E-1,3.329226837E0,9.084458771E0,9.676554394E0
6.899938750E-1,-3.537144470E-1,3.441044312E0,8.956175537E0,9.600988497E0
7.000598750E-1,-6.819818115E-1,3.283571777E0,8.913065186E0,9.523112611E0
7.101268750E-1,-8.884025574E-1,3.063978424E0,8.924142151E0,9.477211405E0
7.201928750E-1,-1.028960266E0,2.915337524E0,9.015152893E0,9.530526418E0
7.302588750E-1,-9.687854004E-1,2.743794250E0,9.157806244E0,9.608973267E0
7.403258750E-1,-7.506889343E-1,2.636018372E0,9.235045624E0,9.633181946E0
7.503918750E-1,-5.126838684E-1,2.646945648E0,9.341324615E0,9.722628841E0
7.604588750E-1,-2.814147949E-1,2.797382812E0,9.413474579E0,9.824359955E0
7.705248750E-1,-1.326242065E-1,3.000061340E0,9.333540802E0,9.804740748E0
7.805918750E-1,-1.981878662E-1,3.163072357E0,9.172475739E0,9.704566778E0
7.906578750E-1,-4.604425049E-1,2.891537018E0,8.986262970E0,9.451238850E0
8.007238750E-1,-6.267466736E-1,2.902763672E0,8.831784210E0,9.317685370E0
8.107908750E-1,-7.038363647E-1,3.201841736E0,8.744964752E0,9.339249683E0
8.208568750E-1,-6.559359741E-1,3.311264191E0,8.483009491E0,9.129960162E0
8.309238750E-1,-5.025050354E-1,3.401825867E0,7.902516632E0,8.618277070E0
8.409898750E-1,-4.165837097E-1,3.611539764E0,7.256160736E0,8.115949118E0
8.510568750E-1,-2.835104370E-1,3.870950317E0,6.836433563E0,7.861390360E0
8.611228750E-1,-1.428030396E-1,4.020339661E0,6.781348114E0,7.884808554E0
8.711888750E-1,9.056167603E-2,4.142785034E0,7.191046143E0,8.299518895E0
8.812558750E-1,1.324745178E-1,4.259691925E0,7.674241333E0,8.778183459E0
8.913218750E-1,-5.957611084E-2,4.238735504E0,7.880512390E0,8.948346413E0
9.013888750E-1,-1.134640503E-1,4.161196747E0,7.741451569E0,8.789681726E0
9.114548750E-1,-1.070274353E-1,3.997586975E0,7.437583466E0,8.444513266E0
9.215218750E-1,-1.784289551E-1,3.892056427E0,7.226073303E0,8.209511283E0
9.315878750E-1,-3.306623840E-1,3.795806580E0,7.119794312E0,8.075206266E0
9.416538750E-1,-3.141966248E-1,3.641477509E0,6.922504578E0,7.828163743E0
9.517208750E-1,8.382568359E-3,3.492686920E0,6.710994415E0,7.565472770E0
9.617868750E-1,1.454974365E-1,3.480262756E0,6.488706665E0,7.364557865E0
9.718538750E-1,-1.157093811E-1,3.868255920E0,6.196963348E0,7.306103426E0
9.819198750E-1,-5.197192383E-1,4.427043915E0,6.255042572E0,7.680780135E0
9.919858750E-1,-1.180744629E0,4.817432098E0,6.843319244E0,8.451794376E0
1.002052875E0,-1.493743744E0,4.819677429E0,8.153843994E0,9.588833755E0
1.012118875E0,-9.382489014E-1,4.493206329E0,1.013721954E1,1.112800226E1
1.022185875E0,5.216651917E-1,4.138144684E0,1.086740112E1,1.164030855E1
1.032251875E0,1.547182617E0,3.725153503E0,1.034004776E1,1.109896979E1
1.042318875E0,1.751956787E0,3.833079071E0,1.012000534E1,1.096249770E1
1.052384875E0,1.307980042E0,4.214036865E0,9.482032013E0,1.045838657E1
1.062450875E0,3.375480652E-1,4.739444275E0,9.332942047E0,1.047282569E1
1.072517875E0,-6.292913818E-1,5.203329620E0,9.664951630E0,1.099463218E1
1.082583875E0,-1.033301239E0,5.268743591E0,9.995464325E0,1.134621865E1
1.092650875E0,-9.714797974E-1,4.996459808E0,1.020862106E1,1.140720508E1
1.102716875E0,-6.215075684E-1,4.756658478E0,1.023496628E1,1.130338915E1
1.112783875E0,-6.990463257E-2,4.596042480E0,9.987680511E0,1.099464666E1
1.122849875E0,4.290078735E-1,4.575385437E0,9.744436340E0,1.077368272E1
1.132915875E0,7.053332520E-1,4.563110962E0,9.485474854E0,1.054958340E1
1.142982875E0,7.484436035E-1,4.467310181E0,9.234446869E0,1.028552561E1
1.153048875E0,4.782554626E-1,4.284839630E0,9.090296631E0,1.006091804E1
1.163115875E0,3.921844482E-2,4.233047333E0,8.796307983E0,9.761929212E0
1.173181875E0,-6.496490479E-2,4.230802002E0,8.279133453E0,9.297739336E0
1.183248875E0,8.382568359E-3,4.202510834E0,7.689808960E0,8.763237382E0
1.193314875E0,6.137237549E-2,4.258195038E0,6.849157104E0,8.065168603E0
1.203380875E0,1.793270874E-1,4.243525543E0,5.866600342E0,7.242697482E0
1.213447875E0,5.306465149E-1,4.092789001E0,5.045857086E0,6.518679411E0
1.223513875E0,7.092251587E-1,3.974983978E0,4.546046448E0,6.080299027E0
1.233580875E0,8.303233337E-1,3.589086456E0,4.092639313E0,5.506421249E0
1.243646875E0,9.470805359E-1,3.008294220E0,3.669918365E0,4.838914802E0
1.253713875E0,1.064436493E0,2.465822296E0,3.331621857E0,4.279370145E0
1.263779875E0,9.267228699E-1,2.128124542E0,2.891087952E0,3.707575878E0
1.273845875E0,4.294569397E-1,1.894610138E0,2.550097046E0,3.205772260E0
1.283912875E0,-0.000000000E0,1.721420288E0,2.574047241E0,3.096612182E0
1.293978875E0,-1.985022125E0,2.127226410E0,2.047741699E0,3.557899816E0
1.304045875E0,-6.362968140E0,2.799029388E0,1.578168182E0,7.128291792E0
1.314111875E0,-3.640729065E0,1.521585846E0,2.813698883E0,4.846342231E0
1.324178875E0,-9.006770325E-1,1.010398865E-1,2.042053528E0,2.234146545E0
1.334244875E0,1.089584198E0,-1.133592682E0,2.444865875E0,2.906818749E0
1.344310875E0,1.619033203E0,-1.444645844E0,3.675606537E0,4.268296328E0
1.354377875E0,2.474504242E0,-1.222208405E0,4.703968048E0,5.453831683E0
1.364443875E0,3.867657166E0,-9.509724426E-1,5.863756256E0,7.088494760E0
1.374510875E0,4.500241699E0,-6.457571411E-1,7.506589966E0,8.775993992E0
1.384576875E0,4.222120056E0,-2.339634705E-1,9.227261810E0,1.015004420E1
1.394643875E0,3.937561798E0,-1.901046753E-1,1.090332642E1,1.159409590E1
1.404709875E0,4.116140442E0,-8.158035278E-1,1.187465652E1,1.259426914E1
1.414775875E0,4.660408630E0,-1.577120361E0,1.215188004E1,1.311010700E1
1.424842875E0,5.064717865E0,-1.927391968E0,1.222732315E1,1.337436497E1
1.434908875E0,5.567522278E0,-1.758992157E0,1.200563416E1,1.335015390E1
1.444975875E0,6.211333466E0,-1.330283661E0,1.160117523E1,1.322639727E1
1.455041875E0,6.935527496E0,-9.687854004E-1,1.117231705E1,1.318562683E1
1.465108875E0,7.590864716E0,-7.059320068E-1,1.108819199E1,1.345613498E1
1.475174875E0,8.131989441E0,-6.899153137E-1,1.105900269E1,1.374433614E1
1.485240875E0,8.260871429E0,-8.578660583E-1,1.037253021E1,1.328786341E1
1.495307875E0,8.299341431E0,-9.756710815E-1,1.099822906E1,1.381274936E1
1.505373875E0,8.439300385E0,-1.275347900E0,1.174472672E1,1.451850229E1
1.515440875E0,8.659941559E0,-1.582958221E0,1.173529633E1,1.467029394E1
1.525506875E0,8.560847626E0,-1.752705231E0,1.099029556E1,1.404089329E1
1.535572875E0,8.272397461E0,-1.664688263E0,9.687255249E0,1.284704873E1
1.545639875E0,8.053402863E0,-1.559756470E0,8.406668243E0,1.174573152E1
1.555705875E0,8.032745819E0,-1.647474060E0,7.482340393E0,1.110065736E1
1.565772875E0,8.165370026E0,-1.782792664E0,7.066355438E0,1.094463323E1
1.575838875E0,8.231532440E0,-2.046095123E0,7.064708862E0,1.103878358E1
1.585905875E0,8.385113068E0,-2.309247894E0,7.561675415E0,1.152482894E1
1.595971875E0,8.425828400E0,-2.318528595E0,7.720345459E0,1.166078441E1
1.606037875E0,8.566086731E0,-2.336640930E0,7.250023499E0,1.146300892E1
1.616104875E0,8.989556122E0,-2.494263153E0,7.074438629E0,1.170816595E1
1.626170875E0,9.118737488E0,-2.662363586E0,6.926695862E0,1.175664360E1
1.636237875E0,9.166937256E0,-2.809357910E0,6.745722198E0,1.172305415E1
1.646303875E0,9.318272552E0,-2.906805267E0,6.698719940E0,1.183860503E1
1.656370875E0,9.599387970E0,-3.002606049E0,6.740034027E0,1.210751631E1
1.666436875E0,1.000669098E1,-3.023861847E0,7.000941467E0,1.258136663E1
1.676502875E0,1.032717453E1,-2.849324799E0,7.288194122E0,1.295712002E1
1.686569875E0,1.058314224E1,-2.522704010E0,7.533234558E0,1.323316131E1
1.696635875E0,1.083177521E1,-2.208806763E0,7.727680206E0,1.348789171E1
1.706702875E0,1.103400467E1,-2.045795746E0,7.759414215E0,1.364342509E1
1.716768875E0,1.115585129E1,-1.966610413E0,7.813900909E0,1.376145421E1
1.726835875E0,1.128877487E1,-1.876946869E0,7.856113129E0,1.388084584E1
1.736901875E0,1.133607651E1,-1.764979706E0,7.806715851E0,1.387683668E1
1.746967875E0,1.126302841E1,-1.664987640E0,7.538773041E0,1.365507568E1
1.757034875E0,1.114552277E1,-1.584754486E0,7.131470032E0,1.332636445E1
1.767100875E0,1.117231705E1,-1.487007751E0,6.961124268E0,1.324723033E1
1.777167875E0,1.148890869E1,-1.169368286E0,7.430697784E0,1.373236013E1
1.787233875E0,1.160297150E1,-5.661227417E-1,7.614964600E0,1.389018101E1
1.797300875E0,1.146106659E1,-3.176394653E-1,7.319029999E0,1.360239473E1
1.807366875E0,1.120884109E1,-5.098397827E-1,6.947203217E0,1.319703330E1
1.817433125E0,1.097876953E1,-8.445437622E-1,6.362219696E0,1.271709377E1
1.827500125E0,1.067744614E1,-1.149908752E0,5.795647888E0,1.220326516E1
1.837566125E0,1.029499146E1,-1.380130005E0,5.171745300E0,1.160338560E1
1.847633125E0,9.967622223E0,-1.691033478E0,4.615352325E0,1.111371064E1
1.857699125E0,9.800868988E0,-1.961221619E0,4.193230133E0,1.083912368E1
1.867766125E0,9.742041321E0,-2.152523804E0,3.912414093E0,1.071670247E1
1.877832125E0,9.801318054E0,-2.290836182E0,3.981121216E0,1.082419014E1
1.887898125E0,9.942624207E0,-2.273322601E0,4.316573639E0,1.107504310E1
1.897965125E0,9.933792572E0,-2.156415710E0,4.572840729E0,1.114635527E1
1.908031125E0,9.929750977E0,-2.247426453E0,4.725672913E0,1.122420886E1
1.918098125E0,1.007060806E1,-2.593806152E0,4.917723541E0,1.150343348E1
1.928164125E0,1.019080811E1,-3.001857605E0,5.121749268E0,1.179389819E1
1.938231125E0,1.028705795E1,-3.294798431E0,5.312303009E0,1.203743417E1
1.948297125E0,1.023706192E1,-3.455713806E0,5.390290833E0,1.207454471E1
1.958363125E0,1.008527756E1,-3.502716064E0,5.362149353E0,1.194715401E1
1.968430125E0,9.983339539E0,-3.435356140E0,5.228028259E0,1.178138445E1
1.978496125E0,1.008078690E1,-3.371588745E0,5.058131561E0,1.177177005E1
1.988563125E0,1.034304153E1,-3.397933960E0,4.908742218E0,1.194237052E1
1.998629125E0,1.072160431E1,-3.557801514E0,4.810396729E0,1.227805633E1
2.008696125E0,1.094718521E1,-3.712579651E0,4.803660736E0,1.251795783E1
2.018762125E0,1.090123077E1,-3.746708679E0,4.741240540E0,1.246410928E1
2.028829125E0,1.072834030E1,-3.733087006E0,4.709207153E0,1.229674169E1
2.038895125E0,1.054751633E1,-3.699107666E0,4.700674896E0,1.212558628E1
2.048961125E0,1.030337402E1,-3.540138245E0,4.637206879E0,1.184043000E1
2.059028125E0,1.001417542E1,-3.184178467E0,4.460125122E0,1.141557786E1
2.069094125E0,9.707163849E0,-2.674937439E0,4.193978577E0,1.090751010E1
2.079161125E0,9.415719910E0,-2.206561432E0,3.855981445E0,1.041120971E1
2.089227125E0,9.265582123E0,-1.954186249E0,3.507655792E0,1.009819316E1
2.099294125E0,9.167685699E0,-1.886976013E0,3.260370026E0,9.911465697E0
2.109360125E0,9.075028381E0,-1.862277374E0,3.196303253E0,9.800029165E0
2.119426125E0,8.886570282E0,-1.828747101E0,3.229534149E0,9.630438108E0
2.129493125E0,8.657396851E0,-1.829495544E0,3.431613922E0,9.490708524E0
2.139559125E0,8.511001282E0,-1.840123444E0,3.669618988E0,9.449301594E0
2.149626125E0,8.408913574E0,-1.741628265E0,3.836222534E0,9.405301688E0
2.159692125E0,8.362959137E0,-1.573527832E0,3.863166504E0,9.345540691E0
2.169759125E0,8.502019958E0,-1.445094910E0,3.750750275E0,9.404295311E0
2.179825125E0,8.878636780E0,-1.603016510E0,3.429667969E0,9.652071041E0
2.189891125E0,8.945697327E0,-1.478325806E0,3.040776672E0,9.563329474E0
2.199958125E0,9.050479431E0,-1.377435608E0,2.727328491E0,9.552320529E0
2.210024125E0,9.069489899E0,-1.585802307E0,2.599045258E0,9.566893552E0
2.220091125E0,9.012458496E0,-1.952240295E0,2.526296539E0,9.561266889E0
2.230157125E0,9.006620636E0,-2.391127625E0,2.533331909E0,9.656835774E0
2.240224125E0,9.103469238E0,-2.873724060E0,2.600841522E0,9.894231591E0
2.250290125E0,9.323361969E0,-3.318299561E0,2.695444794E0,1.025678376E1
2.260356125E0,9.500593414E0,-3.663481750E0,2.859952698E0,1.057646932E1
2.270423125E0,9.525741119E0,-3.871549072E0,3.019820251E0,1.071671360E1
2.280489125E0,9.486822052E0,-3.993844757E0,3.133134613E0,1.075951305E1
2.290556125E0,9.401499481E0,-3.969146118E0,3.216511230E0,1.069991859E1
2.300622125E0,9.338330841E0,-3.813170471E0,3.307521973E0,1.061529055E1
2.310689125E0,9.357041931E0,-3.632496185E0,3.355572052E0,1.058343640E1
2.320755125E0,9.324409790E0,-3.462599487E0,3.406017151E0,1.051357056E1
2.330821125E0,9.322912903E0,-3.322191467E0,3.485501862E0,1.049296833E1
2.340888125E0,9.292526093E0,-3.251239014E0,3.554957428E0,1.046705874E1
2.350954125E0,9.191785583E0,-3.212918701E0,3.598516846E0,1.038080403E1
2.361021125E0,9.086255035E0,-3.222648468E0,3.563040619E0,1.027816872E1
2.371087125E0,8.984317017E0,-3.302282867E0,3.436254272E0,1.017009675E1
2.381154125E0,8.812923431E0,-3.413501587E0,3.231031036E0,9.987951444E0
2.391220125E0,8.654852142E0,-3.524570618E0,2.971171417E0,9.805963657E0
2.401286125E0,8.569679260E0,-3.594774628E0,2.783761139E0,9.701089286E0
2.411353125E0,8.506061554E0,-3.607647858E0,2.604284363E0,9.599505366E0
2.421419125E0,8.590485992E0,-3.476071472E0,2.470612335E0,9.590800164E0
2.431486125E0,8.835526428E0,-3.268303528E0,2.364033966E0,9.712723192E0
2.441552125E0,9.022038574E0,-3.083138580E0,2.260898438E0,9.798703245E0
2.451619125E0,9.149273987E0,-3.023412781E0,2.220781860E0,9.888483777E0
2.461685125E0,9.200018463E0,-3.033292236E0,2.212998047E0,9.936727926E0
2.471751125E0,9.117090912E0,-3.133733368E0,2.235002289E0,9.896305712E0
2.481818125E0,8.851543121E0,-3.232827301E0,2.268532562E0,9.692637823E0
2.491884125E0,8.501870270E0,-3.253634033E0,2.303410034E0,9.390081485E0
2.501951125E0,8.093070374E0,-3.191363525E0,2.309846649E0,9.000998876E0
2.512017125E0,7.687413940E0,-3.081042938E0,2.262844391E0,8.585430881E0
2.522084125E0,7.363487549E0,-3.000510406E0,2.205962677E0,8.251683641E0
2.532150125E0,7.138954468E0,-2.949915619E0,2.159858551E0,8.020702090E0
2.542216125E0,7.042704620E0,-2.878813477E0,2.124981079E0,7.899544290E0
2.552283125E0,7.067403259E0,-2.832409973E0,2.156415710E0,7.913334556E0
2.562349125E0,7.135212250E0,-2.774330750E0,2.213746490E0,7.969243282E0
2.572416125E0,7.166646881E0,-2.746039581E0,2.236050110E0,7.993840191E0
2.582482125E0,7.171137543E0,-2.768492889E0,2.235002289E0,8.005310848E0
2.592549125E0,7.094796295E0,-2.816243591E0,2.216291199E0,7.948541320E0
2.602615125E0,7.023544464E0,-2.844085693E0,2.198627930E0,7.890054819E0
2.612681125E0,6.999444580E0,-2.828967133E0,2.189796295E0,7.860692545E0
2.622748125E0,7.061266022E0,-2.730621643E0,2.172582092E0,7.876413228E0
2.632814125E0,7.318131866E0,-2.548600159E0,2.141895905E0,8.039784503E0
2.642881125E0,7.707172852E0,-2.328707428E0,2.169738007E0,8.338534324E0
2.652947125E0,8.170010376E0,-2.120640106E0,2.222278748E0,8.728385122E0
2.663014125E0,8.645870819E0,-2.007625122E0,2.258204041E0,9.158664004E0
2.673080125E0,9.088799744E0,-2.051932983E0,2.298170929E0,9.596785887E0
2.683146125E0,9.489666138E0,-2.268981628E0,2.364033966E0,1.003945704E1
2.693213125E0,9.849667511E0,-2.571801910E0,2.418820038E0,1.046330758E1
2.703279125E0,1.014934433E1,-2.895728302E0,2.472558289E0,1.084010965E1
2.713346125E0,1.029259644E1,-3.133583679E0,2.507735138E0,1.104742611E1
2.723412125E0,1.034378998E1,-3.188818817E0,2.536175995E0,1.111731736E1
2.733479125E0,1.035022659E1,-3.172951813E0,2.456691284E0,1.110090743E1
2.743545125E0,1.047042664E1,-2.959495697E0,2.275418243E0,1.111602343E1
2.753611125E0,1.069421127E1,-2.793640594E0,2.094893646E0,1.124985164E1
2.763678125E0,1.105705673E1,-2.717748413E0,2.043849792E0,1.156814514E1
2.773744125E0,1.133008896E1,-2.696941681E0,2.147733765E0,1.184302202E1
2.783811125E0,1.137828873E1,-2.691403198E0,2.384541321E0,1.193294359E1
2.793877125E0,1.121018829E1,-2.672991486E0,2.726430359E0,1.184257690E1
2.803944125E0,1.091275681E1,-2.725532227E0,3.062331848E0,1.165738664E1
2.814010500E0,1.049243088E1,-2.742896118E0,3.350782013E0,1.135087331E1
2.824076500E0,9.976004791E0,-2.652484131E0,3.608545990E0,1.093517022E1
2.834143500E0,9.475595398E0,-2.467319183E0,3.786675568E0,1.049826100E1
2.844209500E0,9.005273438E0,-2.218835907E0,3.945944366E0,1.007911997E1
2.854276500E0,8.759185181E0,-1.799108734E0,4.020489349E0,9.804307822E0
2.864342500E0,8.683292999E0,-1.481618958E0,4.055217133E0,9.697399550E0
2.874409500E0,8.622968445E0,-1.496587830E0,4.002676392E0,9.623761127E0
2.884475500E0,8.612939301E0,-1.485959930E0,4.020189972E0,9.620432824E0
2.894541500E0,8.529862061E0,-1.528770905E0,4.086801453E0,9.581108149E0
2.904608500E0,8.425978088E0,-1.653910675E0,4.218527527E0,9.567052930E0
2.914674500E0,8.316405945E0,-1.871857452E0,4.323459320E0,9.558177580E0
2.924741500E0,8.189020844E0,-2.135608978E0,4.358636169E0,9.519380092E0
2.934807500E0,8.087980957E0,-2.408940582E0,4.207300873E0,9.429730183E0
2.944874500E0,7.974516907E0,-2.693498840E0,3.952680359E0,9.299007362E0
2.954940500E0,8.008047180E0,-2.994822235E0,3.640279999E0,9.292438772E0
2.965007500E0,8.090525665E0,-3.242407379E0,3.337010651E0,9.333030121E0
2.975073500E0,8.155041504E0,-3.333717499E0,3.013533325E0,9.311270450E0
2.985139500E0,8.169261932E0,-3.354075165E0,2.740501099E0,9.246459160E0
2.995206500E0,8.184829559E0,-3.376678162E0,2.515968018E0,9.204536131E0
3.005272500E0,8.209827576E0,-3.345243530E0,2.370021515E0,9.176542109E0
3.015339500E0,8.247249756E0,-3.255130920E0,2.310445404E0,9.162486770E0
3.025405500E0,8.238268433E0,-3.116219788E0,2.293081512E0,9.101544669E0
3.035472500E0,8.225993958E0,-2.967878265E0,2.303110657E0,9.043207212E0
3.045538500E0,8.212222595E0,-2.832260284E0,2.395019531E0,9.011016415E0
3.055604500E0,8.240663452E0,-2.709365845E0,2.533631287E0,9.037061741E0
3.065671500E0,8.233328705E0,-2.617906036E0,2.718496857E0,9.057116469E0
3.075737500E0,8.256680145E0,-2.596799927E0,2.884651337E0,9.123450565E0
3.085804500E0,8.289761353E0,-2.591261444E0,3.025508423E0,9.197199594E0
3.095870500E0,8.350235596E0,-2.613714752E0,3.170407104E0,9.306418243E0
3.105937500E0,8.377928009E0,-2.675685883E0,3.290158081E0,9.390107181E0
3.116003500E0,8.418493652E0,-2.754122772E0,3.374732208E0,9.478662622E0
3.126069500E0,8.458759918E0,-2.830014954E0,3.386108551E0,9.540719842E0
3.136136500E0,8.516689453E0,-2.890788574E0,3.376378784E0,9.606799234E0
3.146202500E0,8.572373657E0,-2.940036163E0,3.362457733E0,9.666205293E0
3.156269500E0,8.624914398E0,-2.963537292E0,3.331172791E0,9.709192233E0
3.166335500E0,8.711434479E0,-2.937940521E0,3.288661194E0,9.764009301E0
3.176402500E0,8.812923431E0,-2.912792816E0,3.202440491E0,9.818737520E0
3.186468500E0,8.968000946E0,-2.829116821E0,3.131637726E0,9.911412503E0
3.196534500E0,9.054670715E0,-2.727927246E0,3.085832977E0,9.947412427E0
3.206601500E0,9.130712585E0,-2.659818878E0,3.037633209E0,9.983574725E0
3.216667500E0,9.231602783E0,-2.620899811E0,2.997067566E0,1.005355757E1
3.226734500E0,9.316027222E0,-2.574346619E0,3.005599823E0,1.012172189E1
3.236800500E0,9.312285004E0,-2.523003387E0,2.989583130E0,1.010058441E1
3.246867500E0,9.211694183E0,-2.467169495E0,2.957100677E0,9.984321682E0
3.256933500E0,9.092841339E0,-2.384541321E0,2.954705658E0,9.853734645E0
3.266999500E0,8.952882385E0,-2.376308441E0,2.931503906E0,9.715691430E0
3.277066500E0,8.937913513E0,-2.430196381E0,2.903961182E0,9.706963632E0
3.287132500E0,9.032666473E0,-2.565814362E0,2.951861572E0,9.843066275E0
3.297199500E0,9.112450562E0,-2.735860748E0,3.043920135E0,9.989351283E0
3.307265500E0,9.201814728E0,-2.865191803E0,3.127596130E0,1.013235293E1
3.317332500E0,9.278605042E0,-2.968776398E0,3.156186676E0,1.024049116E1
3.327398500E0,9.450597382E0,-3.108885040E0,3.147055664E0,1.043469772E1
3.337465500E0,9.717642059E0,-3.261268158E0,3.110082550E0,1.071172492E1
3.347531500E0,1.014245865E1,-3.431613922E0,2.997366943E0,1.111888709E1
3.357597500E0,1.056652679E1,-3.623664551E0,2.859653320E0,1.153083043E1
3.367664500E0,1.091470276E1,-3.815864868E0,2.776725769E0,1.189124750E1
3.377730500E0,1.103864502E1,-3.986809387E0,2.626288605E0,1.202679196E1
3.387797500E0,1.091979218E1,-4.113745422E0,2.474354553E0,1.192841955E1
3.397863500E0,1.068268524E1,-4.172872467E0,2.369123383E0,1.171090834E1
3.407930500E0,1.063104263E1,-4.229454803E0,2.328108673E0,1.167593445E1
3.417996500E0,1.075947556E1,-4.366869049E0,2.382894745E0,1.185386211E1
3.428062500E0,1.101274887E1,-4.622836761E0,2.514171753E0,1.220542162E1
3.438129500E0,1.128907425E1,-4.831652527E0,2.686463470E0,1.257000993E1
3.448195500E0,1.153321655E1,-4.953349457E0,2.901566162E0,1.288292828E1
3.458262500E0,1.183753372E1,-5.030289459E0,3.059038696E0,1.322076906E1
3.468328500E0,1.214424591E1,-5.035827942E0,3.118614807E0,1.351177376E1
3.478395500E0,1.220292389E1,-4.949906616E0,3.179388428E0,1.354700844E1
3.488461500E0,1.197195419E1,-4.737348633E0,3.188968506E0,1.326422555E1
3.498527500E0,1.153486313E1,-4.361929321E0,3.183879089E0,1.273642732E1
3.508594500E0,1.106484055E1,-3.893553314E0,3.182531891E0,1.215396902E1
3.518660500E0,1.076082275E1,-3.473526764E0,3.216062164E0,1.175600912E1
3.528727500E0,1.040890457E1,-3.078049164E0,3.253334656E0,1.133154303E1
3.538793500E0,1.008782227E1,-2.729274445E0,3.257825317E0,1.094653017E1
3.548860500E0,9.924062805E0,-2.460134125E0,3.298989716E0,1.074349178E1
3.558926500E0,9.880952454E0,-2.298320618E0,3.392694855E0,1.069700320E1
3.568993500E0,9.939031677E0,-2.253713379E0,3.450774078E0,1.075971265E1
3.579059500E0,1.008662476E1,-2.364333344E0,3.349584503E0,1.088805710E1
3.589125500E0,1.023257126E1,-2.499053192E0,3.180885315E0,1.100312741E1
3.599192500E0,1.032492920E1,-2.684218140E0,2.998564453E0,1.108154226E1
3.609258500E0,1.031055908E1,-2.938838654E0,2.797083435E0,1.108007567E1
3.619325500E0,1.027897476E1,-3.198249207E0,2.635120239E0,1.108286871E1
3.629391500E0,1.025532394E1,-3.448977814E0,2.455194397E0,1.109482297E1
3.639458500E0,1.015218842E1,-3.663631439E0,2.239343262E0,1.102287545E1
3.649524500E0,9.984836426E0,-3.802991638E0,2.024989014E0,1.087475445E1
3.659590500E0,9.751920776E0,-3.896098022E0,1.876647491E0,1.066777130E1
3.669657500E0,9.419761505E0,-3.983516235E0,1.748813324E0,1.037586895E1
3.679723500E0,9.050030365E0,-4.047133942E0,1.633253632E0,1.004738076E1
3.689790500E0,8.673862610E0,-4.083358612E0,1.598675537E0,9.719335039E0
3.699856500E0,8.287216644E0,-4.100123749E0,1.615290985E0,9.386060911E0
3.709923500E0,7.890092468E0,-4.068689117E0,1.668430481E0,9.032798601E0
3.719989500E0,7.562573547E0,-4.022734680E0,1.753154297E0,8.743481169E0
3.730055500E0,7.330855408E0,-3.963457947E0,1.803000641E0,8.526502871E0
3.740122500E0,7.179969177E0,-3.892505493E0,1.864073639E0,8.377250559E0
3.750188500E0,7.015311584E0,-3.834276581E0,1.842967529E0,8.204437997E0
3.760255500E0,6.850504303E0,-3.876339111E0,1.788031769E0,8.071708104E0
3.770321500E0,6.788084106E0,-3.842808838E0,1.759890289E0,7.996404156E0
3.780388500E0,6.734495544E0,-3.781885529E0,1.745819550E0,7.918584109E0
3.790454500E0,6.713838501E0,-3.721860352E0,1.701362000E0,7.862728823E0
3.800520500E0,6.779701538E0,-3.689228210E0,1.628762970E0,7.888448932E0
3.810587500E0,6.844217377E0,-3.671265564E0,1.566492462E0,7.923092892E0
3.820653375E0,6.822961578E0,-3.677552490E0,1.501078491E0,7.894962549E0
3.830720375E0,6.818321228E0,-3.662583618E0,1.432670746E0,7.871249494E0
3.840786375E0,6.747069397E0,-3.653901672E0,1.412762146E0,7.801912571E0
3.850853375E0,6.640491028E0,-3.670517120E0,1.389560394E0,7.713604547E0
3.860919375E0,6.539002075E0,-3.705394592E0,1.343007202E0,7.634930620E0
3.870986375E0,6.476581879E0,-3.697012024E0,1.323397980E0,7.573994517E0
3.881052375E0,6.421945496E0,-3.690575409E0,1.311422882E0,7.522071575E0
3.891118375E0,6.419700165E0,-3.647315369E0,1.357227631E0,7.507165007E0
3.901185375E0,6.426885223E0,-3.638334045E0,1.460961914E0,7.528395448E0
3.911251375E0,6.423143005E0,-3.604803772E0,1.586251373E0,7.534425640E0
3.921318375E0,6.421795807E0,-3.584745483E0,1.702409821E0,7.549043699E0
3.931384375E0,6.388714600E0,-3.556903381E0,1.862427063E0,7.545586158E0
3.941451375E0,6.324498138E0,-3.501668243E0,2.016007690E0,7.505014603E0
3.951517375E0,6.269113312E0,-3.435954895E0,2.133363647E0,7.460483108E0
3.961583375E0,6.248905334E0,-3.339854736E0,2.215542755E0,7.423750887E0
3.971650375E0,6.233487396E0,-3.208877106E0,2.241887970E0,7.360660233E0
3.981716375E0,6.263425140E0,-3.112627258E0,2.230960693E0,7.341398270E0
3.991783375E0,6.314618683E0,-3.039130096E0,2.171085205E0,7.336506786E0
4.001849375E0,6.406976624E0,-3.009491730E0,2.122436371E0,7.389934105E0
4.011916375E0,6.659351807E0,-3.040926361E0,2.062261505E0,7.605729560E0
4.021982375E0,6.956783295E0,-3.167563019E0,2.042951660E0,7.912265211E0
4.032048375E0,7.283853149E0,-3.421584778E0,2.059417419E0,8.306801984E0
4.042115375E0,7.679330750E0,-3.712280273E0,2.156864777E0,8.798023145E0
4.052181375E0,8.156239014E0,-3.996239777E0,2.299967194E0,9.369312477E0
4.062248375E0,8.620872803E0,-4.249213715E0,2.521805878E0,9.936537121E0
4.072314375E0,9.057514801E0,-4.431534576E0,2.765050049E0,1.045574363E1
4.082381375E0,9.417067108E0,-4.585863647E0,2.920426941E0,1.087383060E1
4.092447375E0,9.578581238E0,-4.618944855E0,3.054548035E0,1.106409209E1
4.102513375E0,9.793983307E0,-4.620591431E0,3.140918427E0,1.127551962E1
4.112580375E0,1.011446686E1,-4.678371277E0,3.235671387E0,1.160427365E1
4.122646375E0,1.045545776E1,-4.775070190E0,3.325933685E0,1.196577316E1
4.132713375E0,1.072893906E1,-4.881349182E0,3.409609680E0,1.227041732E1
4.142779375E0,1.083207458E1,-4.959786072E0,3.493435364E0,1.241520875E1
4.152846375E0,1.091111023E1,-5.066813507E0,3.624862061E0,1.256441604E1
4.162912375E0,1.102173019E1,-5.160069580E0,3.790866852E0,1.274658880E1
4.172979375E0,1.105990082E1,-5.286406860E0,3.960613861E0,1.288231213E1
4.183045375E0,1.106843307E1,-5.315895538E0,4.127367096E0,1.295392277E1
4.193111375E0,1.097966766E1,-5.184169464E0,4.256099396E0,1.286635524E1
4.203178375E0,1.076456497E1,-4.891378326E0,4.302353210E0,1.258219711E1
4.213244375E0,1.057580750E1,-4.512216797E0,4.264332275E0,1.226345524E1
4.223311375E0,1.042986099E1,-4.084705811E0,4.182602234E0,1.195662926E1
4.233377375E0,1.029184799E1,-3.633544006E0,4.063000946E0,1.164614760E1
4.243444375E0,1.020592667E1,-3.182831268E0,3.951033783E0,1.139745682E1
4.253510375E0,1.012524445E1,-2.856360168E0,3.908971252E0,1.122316465E1
4.263576375E0,1.013901581E1,-2.659968567E0,3.942202148E0,1.119892995E1
4.273643375E0,1.011790970E1,-2.588117981E0,4.040996704E0,1.119821886E1
4.283709375E0,1.006162674E1,-2.659369812E0,4.180955658E0,1.121556823E1
4.293776375E0,1.006057892E1,-2.821632385E0,4.295168152E0,1.129713800E1
4.303842375E0,1.002180954E1,-3.099454651E0,4.397704926E0,1.137466897E1
4.313909375E0,9.917775879E0,-3.371888123E0,4.354145508E0,1.134418313E1
4.323975375E0,9.774673462E0,-3.592080231E0,4.179907837E0,1.122135960E1
4.334041375E0,9.663155365E0,-3.678151245E0,3.967200165E0,1.107447720E1
4.344108375E0,9.621092834E0,-3.589236145E0,3.697760468E0,1.091427853E1
4.354174375E0,9.581425323E0,-3.344345398E0,3.418591003E0,1.070864706E1
4.364241375E0,9.550140381E0,-3.123554535E0,2.910996552E0,1.046115076E1
4.374307375E0,9.453441467E0,-2.869233398E0,2.516417084E0,1.019472466E1
4.384374375E0,9.557924194E0,-2.632425842E0,2.585872650E0,1.024550233E1
4.394440375E0,9.596693573E0,-2.491718445E0,2.804717560E0,1.030396181E1
4.404507375E0,9.524842987E0,-2.282303925E0,3.123255157E0,1.028038267E1
4.414573375E0,9.439969482E0,-2.130669250E0,3.413351898E0,1.026176137E1
4.424639375E0,9.334139557E0,-2.070494385E0,3.550017700E0,1.019881042E1
4.434706375E0,9.152417450E0,-2.106569366E0,3.558250580E0,1.004318310E1
4.444772375E0,8.945697327E0,-2.124382324E0,3.377875671E0,9.795332816E0
4.454839375E0,8.587641907E0,-2.264490967E0,3.147504730E0,9.422435932E0
4.464905375E0,8.305029602E0,-2.573448486E0,2.869233398E0,9.155798933E0
4.474972375E0,8.225844269E0,-2.690954132E0,2.724334717E0,9.073463932E0
4.485038375E0,8.101752319E0,-2.808609467E0,2.617007904E0,8.965233301E0
4.495104375E0,8.091124420E0,-2.927013245E0,2.567311249E0,8.979130691E0
4.505171375E0,8.191565552E0,-3.054098969E0,2.564916229E0,9.110876026E0
4.515237375E0,8.282276917E0,-3.182382202E0,2.560126190E0,9.234604134E0
4.525304375E0,8.301586761E0,-3.301235046E0,2.542911987E0,9.288751098E0
4.535370375E0,8.352181549E0,-3.386108551E0,2.473905487E0,9.345848068E0
4.545437375E0,8.428223419E0,-3.492387543E0,2.386636963E0,9.430151470E0
4.555503375E0,8.524024200E0,-3.498225403E0,2.279609528E0,9.491743209E0
4.565569375E0,8.669222260E0,-3.337609406E0,2.120041351E0,9.528359064E0
4.575636375E0,8.890462189E0,-3.062631226E0,2.058219910E0,9.625814103E0
4.585702375E0,8.856333160E0,-2.955005035E0,2.186802521E0,9.588993538E0
4.595769375E0,8.586444397E0,-3.094065857E0,1.937720490E0,9.330328590E0
4.605835375E0,8.459508362E0,-3.097059631E0,1.765728149E0,9.180024836E0
4.615902375E0,8.229287109E0,-3.100652161E0,1.740879822E0,8.964701484E0
4.625968375E0,7.990832977E0,-3.070265350E0,1.820963287E0,8.751905409E0
4.636035375E0,7.830965424E0,-3.034489746E0,1.985770569E0,8.629914961E0
4.646101375E0,7.692503357E0,-2.991529083E0,2.224973145E0,8.548354207E0
4.656167375E0,7.588769073E0,-2.956950989E0,2.462978210E0,8.508774111E0
4.666234375E0,7.478897552E0,-2.937790833E0,2.682870941E0,8.471264372E0
4.676300375E0,7.388036499E0,-2.948269043E0,2.823428650E0,8.440801088E0
4.686367375E0,7.343279572E0,-3.001857605E0,2.905158691E0,8.448363804E0
4.696433375E0,7.382947083E0,-3.103346558E0,2.919229431E0,8.524116843E0
4.706500375E0,7.525151367E0,-3.283721466E0,2.872077484E0,8.698250332E0
4.716566375E0,7.772736511E0,-3.470682678E0,2.794688416E0,8.959428244E0
4.726632375E0,8.044720917E0,-3.697910156E0,2.693498840E0,9.254566989E0
4.736699375E0,8.215515747E0,-3.908372498E0,2.625839539E0,9.469166165E0
4.746765375E0,8.378227386E0,-4.039948883E0,2.545157318E0,9.643324473E0
4.756832375E0,8.584348755E0,-4.141437836E0,2.516716461E0,9.857809728E0
4.766898375E0,8.822503510E0,-4.226760406E0,2.496807861E0,1.009634197E1
4.776965375E0,9.168134766E0,-4.324058075E0,2.441722412E0,1.042660931E1
4.787031375E0,9.498647461E0,-4.375850372E0,2.532134399E0,1.076030086E1
4.797097375E0,9.686057739E0,-4.417912903E0,2.700833588E0,1.098326777E1
4.807164375E0,9.791737976E0,-4.417314148E0,2.875969391E0,1.112034158E1
4.817229792E0,9.881102142E0,-4.387975159E0,3.131488037E0,1.125596388E1
4.827296792E0,1.000115250E1,-4.290378113E0,3.322790222E0,1.137854694E1
4.837362792E0,1.028062134E1,-4.148173828E0,3.445235596E0,1.160896936E1
4.847429792E0,1.091769653E1,-4.064348145E0,3.479813690E0,1.215829457E1
4.857495792E0,1.184322189E1,-4.148173828E0,3.429817657E0,1.300895461E1
4.867562792E0,1.260393997E1,-4.304299164E0,3.403023376E0,1.374652182E1
4.877628792E0,1.332394272E1,-4.680915985E0,3.477718048E0,1.454417226E1
4.887694792E0,1.364996475E1,-4.956043854E0,3.680396576E0,1.498096216E1
4.897761792E0,1.336286179E1,-4.780908051E0,3.782035217E0,1.468764608E1
4.907827792E0,1.275422745E1,-4.308640137E0,3.757785645E0,1.397696858E1
4.917894792E0,1.234617599E1,-3.962709503E0,3.842659149E0,1.352394756E1
4.927960792E0,1.208766357E1,-3.860172729E0,3.848197632E0,1.325975751E1
4.938027792E0,1.146421005E1,-3.639381866E0,3.603905640E0,1.255632702E1
4.948093792E0,1.088581284E1,-3.406316528E0,3.405568085E0,1.190385683E1
4.958159792E0,1.034798126E1,-3.290158081E0,3.270698547E0,1.134034062E1
4.968226792E0,9.860445099E0,-3.263962555E0,3.102149048E0,1.083997960E1
4.978292792E0,9.458530884E0,-3.262465668E0,2.967578888E0,1.043618767E1
4.988359792E0,9.201215973E0,-3.252286835E0,2.853216705E0,1.016762463E1
4.998425792E0,9.191037140E0,-3.257675629E0,2.808908844E0,1.014778710E1
5.008492792E0,9.309590607E0,-3.298540649E0,2.781366119E0,1.026084037E1
5.018558792E0,9.442813568E0,-3.316353607E0,2.703228607E0,1.036688836E1
5.028625792E0,9.557175751E0,-3.297492828E0,2.547552338E0,1.042607741E1
5.038691792E0,9.605076141E0,-3.258723450E0,2.345921631E0,1.041057705E1
5.048757792E0,9.637857971E0,-3.265758820E0,2.141895905E0,1.039909636E1
5.058824792E0,9.611363068E0,-3.293151855E0,1.918560333E0,1.033944016E1
5.068890792E0,9.499545593E0,-3.379821625E0,1.715432739E0,1.022776956E1
5.078957792E0,9.317524109E0,-3.495381317E0,1.513652344E0,1.006603643E1
5.089023792E0,9.066047058E0,-3.647764435E0,1.351539459E0,9.865396776E0
5.099090792E0,8.797655182E0,-3.820355530E0,1.216669922E0,9.668202458E0
5.109156792E0,8.462053070E0,-3.995790710E0,1.151405640E0,9.428595893E0
5.119222792E0,8.091274109E0,-4.124223633E0,1.165027313E0,9.156157814E0
5.129289792E0,7.578141174E0,-4.111350403E0,1.256487122E0,8.712645160E0
5.139355792E0,7.333699493E0,-4.214336243E0,1.459165649E0,8.583294392E0
5.149422792E0,7.191195831E0,-4.402944031E0,1.599124603E0,8.582331450E0
5.159488792E0,6.774911499E0,-4.325405273E0,1.710942078E0,8.218021623E0
5.169555792E0,6.436764679E0,-4.150868225E0,1.891466675E0,7.889188345E0
5.179621792E0,6.190676422E0,-4.102967834E0,2.069745941E0,7.709907125E0
5.189687792E0,5.972280579E0,-4.095184021E0,2.248773651E0,7.582588635E0
5.199754792E0,5.758375397E0,-4.050576782E0,2.381996613E0,7.432359473E0
5.209820792E0,5.565276947E0,-4.018543396E0,2.453398132E0,7.289729825E0
5.219887792E0,5.371130676E0,-3.953728180E0,2.532433777E0,7.134019351E0
5.229953792E0,5.198539581E0,-3.879632263E0,2.561922455E0,6.974224469E0
5.240020792E0,5.085225220E0,-3.810326385E0,2.560425568E0,6.850830737E0
5.250086792E0,5.035378876E0,-3.720962219E0,2.554737396E0,6.762195163E0
5.260153792E0,5.039121094E0,-3.675157471E0,2.500400391E0,6.719488518E0
5.270219792E0,5.100942535E0,-3.656895447E0,2.425406342E0,6.728677060E0
5.280285792E0,5.229824524E0,-3.667822723E0,2.380948792E0,6.817103874E0
5.290352792E0,5.333409119E0,-3.686833191E0,2.342478790E0,6.893852239E0
5.300418792E0,5.424270172E0,-3.705544281E0,2.277962952E0,6.952904467E0
5.310485792E0,5.460345154E0,-3.726500702E0,2.234104156E0,6.978065496E0
5.320551792E0,5.461392975E0,-3.726051636E0,2.282603302E0,6.994322830E0
5.330618792E0,5.428311768E0,-3.697760468E0,2.393971710E0,6.990786914E0
5.340684792E0,5.537584534E0,-3.706292725E0,2.485581207E0,7.111930973E0
5.350750792E0,5.636828156E0,-3.686982880E0,2.530338135E0,7.195157086E0
5.360817792E0,5.649551697E0,-3.623215485E0,2.571801910E0,7.187439731E0
5.370883792E0,5.717210999E0,-3.535198517E0,2.554887085E0,7.191076287E0
5.380950792E0,5.801186371E0,-3.489094391E0,2.531236267E0,7.227357748E0
5.391016792E0,6.039790192E0,-3.423231354E0,2.512225800E0,7.383011373E0
5.401083792E0,6.392756195E0,-3.315455475E0,2.517913971E0,7.628857551E0
5.411149792E0,6.740782471E0,-3.176394653E0,2.515369263E0,7.864776783E0
5.421216792E0,7.174879761E0,-3.047213287E0,2.551593933E0,8.202136307E0
5.431282792E0,7.724686432E0,-2.947071533E0,2.601589966E0,8.667426460E0
5.441348792E0,8.233927460E0,-2.843936005E0,2.620001678E0,9.096699523E0
5.451415792E0,8.659791870E0,-2.835703125E0,2.658471680E0,9.492137753E0
5.461481792E0,9.068442078E0,-2.906206512E0,2.728376312E0,9.905892959E0
5.471548792E0,9.439969482E0,-3.064128113E0,2.852917328E0,1.032671498E1
5.481614792E0,9.749525757E0,-3.289409637E0,3.000809784E0,1.071813079E1
5.491681792E0,1.011551468E1,-3.579207001E0,3.134032745E0,1.117839529E1
5.501747792E0,1.049737061E1,-3.886218567E0,3.260519714E0,1.165883670E1
5.511813792E0,1.081396225E1,-4.148772583E0,3.356470184E0,1.205902092E1
5.521880792E0,1.106783432E1,-4.318070526E0,3.432362366E0,1.236623633E1
5.531946792E0,1.121752304E1,-4.378245392E0,3.504961395E0,1.254139587E1
5.542013792E0,1.137170242E1,-4.282893677E0,3.552412720E0,1.266011178E1
5.552079792E0,1.207793381E1,-3.794609070E0,3.531755676E0,1.314339535E1
5.562146792E0,1.269300476E1,-3.575614471E0,3.612138519E0,1.367278075E1
5.572212792E0,1.290032364E1,-3.795806580E0,3.638034668E0,1.393060637E1
5.582278792E0,1.227731918E1,-4.571942596E0,3.946393433E0,1.368244300E1
5.592345792E0,1.273566605E1,-4.582121429E0,4.505181427E0,1.426498111E1
5.602411792E0,1.265124161E1,-4.397854614E0,4.637955322E0,1.417411969E1
5.612478792E0,1.261202316E1,-4.389322357E0,4.690945129E0,1.415394804E1
5.622544792E0,1.260573624E1,-4.325854340E0,4.608466644E0,1.410161575E1
5.632611792E0,1.244003082E1,-4.124073944E0,4.477788391E0,1.384965493E1
5.642677792E0,1.208362198E1,-3.861968994E0,4.345164185E0,1.340929440E1
5.652744792E0,1.167452271E1,-3.565285950E0,4.259392548E0,1.292857955E1
5.662810792E0,1.135149445E1,-3.350183258E0,4.245022430E0,1.257379694E1
5.672876792E0,1.107352249E1,-3.203787689E0,4.271517334E0,1.229361689E1
5.682943792E0,1.070244415E1,-3.044518890E0,4.309987335E0,1.193261903E1
5.693009792E0,1.041713745E1,-2.907553711E0,4.353846130E0,1.165875625E1
5.703076792E0,1.026370651E1,-2.725681915E0,4.379293213E0,1.148700232E1
5.713142792E0,1.025996429E1,-2.556234283E0,4.319567413E0,1.142190280E1
5.723209792E0,1.024110352E1,-2.414329376E0,4.137246552E0,1.130601595E1
5.733275792E0,1.010473709E1,-2.239492950E0,3.963308258E0,1.108281790E1
5.743341792E0,9.978549500E0,-2.150577850E0,3.796255646E0,1.089072964E1
5.753408792E0,9.831255798E0,-2.165247345E0,3.613186340E0,1.069565342E1
5.763474792E0,9.657467194E0,-2.228116608E0,3.457659760E0,1.049697991E1
5.773541792E0,9.447603607E0,-2.319277039E0,3.328478394E0,1.028178138E1
5.783607792E0,9.231004028E0,-2.354902954E0,3.207978973E0,1.005227001E1
5.793674792E0,9.137298889E0,-2.384691010E0,3.143313446E0,9.952758493E0
5.803740792E0,9.047635345E0,-2.395169220E0,3.042572937E0,9.841432366E0
5.813807792E0,8.973988495E0,-2.347268829E0,2.936293945E0,9.729540719E0
5.823873500E0,8.865613861E0,-2.308649139E0,2.865640869E0,9.599003468E0
5.833939500E0,8.745264130E0,-2.252815247E0,2.824476471E0,9.462160883E0
5.844006500E0,8.583450623E0,-2.218835907E0,2.844534760E0,9.310759119E0
5.854072500E0,8.427774353E0,-2.223176880E0,2.908152466E0,9.188430048E0
5.864139500E0,8.238567810E0,-2.272424469E0,2.968327332E0,9.047037066E0
5.874205500E0,8.001760254E0,-2.340532837E0,3.018023987E0,8.866494793E0
5.884272500E0,7.814948730E0,-2.420915680E0,3.081791382E0,8.742522205E0
5.894338500E0,7.696395264E0,-2.552941132E0,3.126248932E0,8.690537432E0
5.904404500E0,7.607180786E0,-2.725831604E0,3.142565002E0,8.670355947E0
5.914471500E0,7.500303040E0,-2.938239899E0,3.165018311E0,8.654775577E0
5.924537500E0,7.387437744E0,-3.212020569E0,3.166515198E0,8.655526042E0
5.934604500E0,7.331005096E0,-3.493435364E0,3.147355042E0,8.709395508E0
5.944670500E0,7.091353455E0,-3.990401917E0,3.095712433E0,8.705977070E0
5.954737500E0,7.244335327E0,-4.188739471E0,3.202141113E0,8.959890647E0
5.964803500E0,7.338040466E0,-4.215833130E0,3.296744385E0,9.082324064E0
5.974870500E0,7.468718719E0,-4.148922272E0,3.301384735E0,9.159391710E0
5.984936500E0,7.919132080E0,-3.928879852E0,3.229683838E0,9.411674000E0
5.995002500E0,8.494984589E0,-3.470233612E0,3.552412720E0,9.840067104E0
6.005069500E0,8.290360107E0,-3.602708130E0,3.404669952E0,9.659262605E0
6.015135500E0,8.430468750E0,-3.585044861E0,3.152145081E0,9.688207709E0
6.025202500E0,8.553363190E0,-3.592828674E0,2.998265076E0,9.749770931E0
6.035268500E0,8.657396851E0,-3.671714630E0,2.844534760E0,9.824631624E0
6.045335500E0,8.792416077E0,-3.701951752E0,2.764301605E0,9.932390981E0
6.055401500E0,8.855135651E0,-3.706292725E0,2.721191254E0,9.977720932E0
6.065467500E0,8.861721954E0,-3.698957977E0,2.696193237E0,9.974059559E0
6.075534500E0,8.866511993E0,-3.696263580E0,2.718197479E0,9.983285878E0
6.085600500E0,8.845854950E0,-3.683689728E0,2.719844055E0,9.960736493E0
6.095667500E0,8.799601135E0,-3.651356964E0,2.698139191E0,9.901784835E0
6.105733500E0,8.765472107E0,-3.645968170E0,2.693199463E0,9.868125886E0
6.115800500E0,8.680897980E0,-3.639681244E0,2.704875183E0,9.793958293E0
6.125866500E0,8.592581635E0,-3.636837158E0,2.752027130E0,9.727933850E0
6.135932500E0,8.562344513E0,-3.682342529E0,2.764600983E0,9.721954981E0
6.145999500E0,8.612939301E0,-3.825894012E0,2.738255768E0,9.814185297E0
6.156065500E0,8.699908447E0,-4.047732697E0,2.632575531E0,9.950025171E0
6.166132500E0,8.830736389E0,-4.362977142E0,2.467618561E0,1.015414280E1
6.176198500E0,9.008416901E0,-4.765340424E0,2.287992096E0,1.044485291E1
6.186265500E0,9.147627411E0,-5.238955536E0,2.083517303E0,1.074554730E1
6.196331500E0,9.427994385E0,-5.707780609E0,1.945204926E0,1.119149944E1
6.206398500E0,9.750274200E0,-6.193221130E0,1.835333405E0,1.169582334E1
6.216464500E0,9.822274475E0,-6.421496429E0,1.777852936E0,1.186901231E1
6.226530500E0,9.493408356E0,-6.204298096E0,1.857187958E0,1.149205222E1
6.236597500E0,9.636510773E0,-6.350394287E0,2.031575317E0,1.171823987E1
6.246663500E0,9.829609222E0,-6.464906158E0,2.058369598E0,1.194374793E1
6.256730500E0,9.987530823E0,-6.414760437E0,2.100881195E0,1.205461012E1
6.266796500E0,1.017583923E1,-6.548582153E0,2.215991821E0,1.230212388E1
6.276863500E0,1.015623001E1,-6.793023834E0,2.273172913E0,1.242825394E1
6.286929500E0,1.016191818E1,-7.131470032E0,2.298320618E0,1.262555835E1
6.296996500E0,1.014949402E1,-7.452552338E0,2.329755249E0,1.280548807E1
6.307062500E0,1.006866211E1,-7.721093903E0,2.337688751E0,1.290186174E1
6.317128500E0,9.724827118E0,-7.829318848E0,2.314936066E0,1.269761494E1
6.327195500E0,8.865015106E0,-7.355703735E0,2.281405792E0,1.174306956E1
6.337261500E0,7.651638336E0,-6.148314514E0,2.185305634E0,1.005608777E1
6.347328500E0,7.182214508E0,-5.199737091E0,2.278262329E0,9.154886689E0
6.357394500E0,7.335944824E0,-4.654870148E0,2.545007629E0,9.053229611E0
6.367461500E0,7.500602417E0,-4.157604218E0,2.780917053E0,9.015442812E0
6.377527500E0,7.579338684E0,-3.683090973E0,2.937940521E0,8.924294286E0
6.387593500E0,7.731272736E0,-3.376827850E0,3.134332123E0,8.999976794E0
6.397660500E0,7.981252899E0,-3.309617615E0,3.309168549E0,9.252273401E0
6.407726500E0,8.146060181E0,-3.398083649E0,3.363056488E0,9.445391357E0
6.417793500E0,8.156538391E0,-3.564687195E0,3.251688080E0,9.476792110E0
6.427859500E0,8.102650452E0,-3.781735840E0,2.999761963E0,9.431492042E0
6.437926500E0,8.189020844E0,-4.108656006E0,2.788102112E0,9.576775550E0
6.447992500E0,8.230933685E0,-4.387675781E0,2.558778992E0,9.671986250E0
6.458058500E0,8.123606873E0,-4.525090027E0,2.374362488E0,9.597240520E0
6.468125500E0,8.016878815E0,-4.573888550E0,2.174528046E0,9.482582698E0
6.478191500E0,7.849826202E0,-4.550537109E0,1.982028351E0,9.287389072E0
6.488258500E0,7.660919037E0,-4.486919403E0,1.855691071E0,9.070044960E0
6.498324500E0,7.436685333E0,-4.361929321E0,1.765428772E0,8.800423564E0
6.508391500E0,7.216792603E0,-4.197271729E0,1.728605347E0,8.525682487E0
6.518457500E0,7.012766876E0,-4.040547638E0,1.720821533E0,8.274427547E0
6.528524500E0,6.804998932E0,-3.879482574E0,1.820364532E0,8.041897944E0
6.538590500E0,6.686894531E0,-3.750001831E0,2.070344696E0,7.941246714E0
6.548656500E0,6.506519623E0,-3.604953461E0,2.415826263E0,7.820914498E0
6.558723500E0,6.347400513E0,-3.453917542E0,2.767594757E0,7.738127706E0
6.568789500E0,6.198310547E0,-3.375330963E0,3.009791107E0,7.672728019E0
6.578856500E0,6.086343384E0,-3.333717499E0,3.169059906E0,7.628904825E0
6.588922500E0,6.005361786E0,-3.338357849E0,3.252137146E0,7.601670825E0
6.598989500E0,5.991889801E0,-3.319197693E0,3.252586212E0,7.582818327E0
6.609055500E0,5.988596649E0,-3.339854736E0,3.219355316E0,7.575101857E0
6.619121500E0,5.951623535E0,-3.434008942E0,3.236120453E0,7.595177134E0
6.629188500E0,5.883664856E0,-3.581751709E0,3.253634033E0,7.617912566E0
6.639254500E0,5.888155518E0,-3.744463348E0,3.256478119E0,7.700391607E0
6.649321500E0,5.953419800E0,-3.905229034E0,3.262016602E0,7.831652025E0
6.659387500E0,6.104156342E0,-3.995042267E0,3.215014343E0,7.972289795E0
6.669454500E0,6.305936737E0,-4.085304565E0,3.171005859E0,8.155355889E0
6.679520500E0,6.608906708E0,-4.193679199E0,3.139271851E0,8.433244977E0
6.689587500E0,6.914421387E0,-4.244124298E0,3.091072083E0,8.681966413E0
6.699653500E0,7.198231201E0,-4.251908112E0,3.008294220E0,8.884992354E0
6.709719500E0,7.545658722E0,-4.208348694E0,2.935994568E0,9.125087856E0
6.719786500E0,7.890541534E0,-4.159849548E0,2.820883942E0,9.355339662E0
6.729852500E0,8.220006409E0,-4.112248535E0,2.597698059E0,9.551289367E0
6.739919500E0,8.471034393E0,-3.978127441E0,2.290686493E0,9.634893162E0
6.749985500E0,8.582402802E0,-3.756887512E0,1.903890839E0,9.560159097E0
6.760052500E0,8.441096649E0,-3.423979797E0,1.579515381E0,9.245032133E0
6.770118500E0,8.169411621E0,-3.096161499E0,1.399589539E0,8.847844548E0
6.780184500E0,7.966284027E0,-2.835553436E0,1.459764404E0,8.580964783E0
6.790251500E0,7.848029938E0,-2.653831329E0,1.828447723E0,8.483962265E0
6.800317500E0,7.994575195E0,-2.482288055E0,2.146087189E0,8.641798237E0
6.810384500E0,7.974965973E0,-2.486179962E0,2.632276154E0,8.758427417E0
6.820450375E0,8.204289093E0,-2.684367828E0,3.198398895E0,9.205756115E0
6.830517375E0,8.689579926E0,-2.990930328E0,3.533402252E0,9.845780568E0
6.840583375E0,9.179960175E0,-3.451073456E0,3.765569458E0,1.050528868E1
6.850650375E0,9.468709717E0,-3.905678101E0,3.825444946E0,1.093365511E1
6.860716375E0,9.643995209E0,-4.265978851E0,3.807931366E0,1.121184911E1
6.870782375E0,9.820029144E0,-4.602628784E0,3.723506927E0,1.146654560E1
6.880849375E0,1.001058289E1,-4.925507355E0,3.633394318E0,1.173345417E1
6.890915375E0,1.023152344E1,-5.213209076E0,3.641178131E0,1.204656793E1
6.900982375E0,1.040396484E1,-5.341043243E0,3.682941284E0,1.226104742E1
6.911048375E0,1.051233948E1,-5.325176239E0,3.878734131E0,1.240610179E1
6.921115375E0,1.053015244E1,-5.164111176E0,4.133354645E0,1.243530358E1
6.931181375E0,1.055245605E1,-4.931644592E0,4.339326324E0,1.243001207E1
6.941247375E0,1.070947952E1,-4.784500580E0,4.376748505E0,1.251959763E1
6.951314375E0,1.109881989E1,-4.743635559E0,4.441863098E0,1.286141629E1
6.961380375E0,1.146346161E1,-4.757706299E0,4.546495514E0,1.321806880E1
6.971447375E0,1.171314240E1,-4.783452759E0,4.592899017E0,1.346008345E1
6.981513375E0,1.180744629E1,-4.799768829E0,4.702920227E0,1.358569201E1
6.991580375E0,1.182795364E1,-4.791236572E0,4.760550385E0,1.362054607E1
7.001646375E0,1.163410675E1,-4.720284119E0,4.697681122E0,1.340528739E1
7.011713375E0,1.118309464E1,-4.514761505E0,4.524790649E0,1.288093193E1
7.021779375E0,1.060739182E1,-4.194427643E0,4.272864532E0,1.218061393E1
7.031845375E0,1.020787262E1,-3.876638489E0,4.027524719E0,1.163829647E1
7.041912375E0,1.013916550E1,-3.640878754E0,3.845652924E0,1.143886889E1
7.051978375E0,1.022718246E1,-3.418291626E0,3.766018524E0,1.142203460E1
7.062045375E0,1.021745270E1,-3.204386444E0,3.716621246E0,1.133480064E1
7.072111375E0,1.019290375E1,-3.028053131E0,3.630849609E0,1.123598956E1
7.082178375E0,1.022733215E1,-2.982398071E0,3.592080231E0,1.124260030E1
7.092244375E0,1.035651352E1,-2.997217255E0,3.536246338E0,1.134661719E1
7.102311375E0,1.045575714E1,-3.050057373E0,3.478167114E0,1.143343141E1
7.112377375E0,1.039648041E1,-3.118764496E0,3.406017151E0,1.137604719E1
7.122443375E0,1.022134460E1,-3.216211853E0,3.319197693E0,1.121770821E1
7.132510375E0,1.009186386E1,-3.347788239E0,3.207080841E0,1.110579893E1
7.142576375E0,9.924811249E0,-3.488345947E0,3.161725159E0,1.098485056E1
7.152643375E0,9.743687897E0,-3.603606262E0,3.206033020E0,1.087216996E1
7.162709375E0,9.581724701E0,-3.690425720E0,3.305276642E0,1.078672999E1
7.172776375E0,9.426198120E0,-3.742667084E0,3.434907074E0,1.070791084E1
7.182842375E0,9.356143799E0,-3.742966461E0,3.560495911E0,1.068757951E1
7.192908375E0,9.327852631E0,-3.772155762E0,3.659290466E0,1.070646536E1
7.202975375E0,9.308991852E0,-3.792214050E0,3.704197083E0,1.071257638E1
7.213041375E0,9.239985352E0,-3.846251678E0,3.668571167E0,1.065970899E1
7.223108375E0,9.152118073E0,-3.888314209E0,3.618126068E0,1.058163923E1
7.233174375E0,9.024732971E0,-3.932322693E0,3.504662018E0,1.044947955E1
7.243241375E0,8.889863434E0,-3.997287598E0,3.397185516E0,1.032225021E1
7.253307375E0,8.782386932E0,-4.058659973E0,3.294199677E0,1.022031274E1
7.263373375E0,8.641230469E0,-4.132606201E0,3.212170258E0,1.010283801E1
7.273440375E0,8.495433655E0,-4.198768616E0,3.131188660E0,9.980300261E0
7.283506375E0,8.385262756E0,-4.300107880E0,3.069816284E0,9.910970250E0
7.293573375E0,8.312214661E0,-4.402644653E0,3.015628967E0,9.877763440E0
7.303639375E0,8.228688354E0,-4.520000610E0,2.974015503E0,9.848171697E0
7.313706375E0,8.132737885E0,-4.628674622E0,2.945874023E0,9.810414263E0
7.323772375E0,8.042475586E0,-4.726720734E0,2.916235657E0,9.773828976E0
7.333839375E0,7.907755737E0,-4.805606689E0,2.894680481E0,9.695650135E0
7.343905375E0,7.778424683E0,-4.861889648E0,2.868784332E0,9.611024141E0
7.353971375E0,7.600295105E0,-4.891827393E0,2.857857056E0,9.479546818E0
7.364038375E0,7.423662415E0,-4.881798248E0,2.846031647E0,9.329663119E0
7.374104375E0,7.254065094E0,-4.861440582E0,2.800975342E0,9.170633991E0
7.384171375E0,7.143295441E0,-4.816384277E0,2.781815186E0,9.053326625E0
7.394237375E0,7.041656799E0,-4.800666962E0,2.737956390E0,8.951409886E0
7.404304375E0,6.965016174E0,-4.774022369E0,2.699636078E0,8.865143814E0
7.414370375E0,6.907086639E0,-4.732708282E0,2.634970551E0,8.777781231E0
7.424437375E0,6.841373291E0,-4.682712250E0,2.589465179E0,8.685477099E0
7.434503375E0,6.747817841E0,-4.619842987E0,2.538571014E0,8.562729567E0
7.444569375E0,6.632856903E0,-4.563110962E0,2.458487549E0,8.417893642E0
7.454636375E0,6.535409546E0,-4.452940063E0,2.372266846E0,8.256385597E0
7.464702375E0,6.418502655E0,-4.336781616E0,2.320025482E0,8.086245690E0
7.474769375E0,6.308331757E0,-4.235292664E0,2.296973419E0,7.937810806E0
7.484835375E0,6.209088135E0,-4.128564606E0,2.243534546E0,7.786608275E0
7.494902375E0,6.118376770E0,-4.034260712E0,2.224673767E0,7.658914229E0
7.504968375E0,6.076463928E0,-3.956572266E0,2.247426453E0,7.591363753E0
7.515034375E0,6.079158325E0,-3.930227051E0,2.294578400E0,7.593941048E0
7.525101375E0,6.170618134E0,-3.973337402E0,2.344574432E0,7.704606903E0
7.535167375E0,6.303541718E0,-4.106560364E0,2.380200348E0,7.890743305E0
7.545234375E0,6.426436157E0,-4.310586090E0,2.396067352E0,8.100701999E0
7.555300375E0,6.543642426E0,-4.524191895E0,2.393672333E0,8.307661267E0
7.565367375E0,6.783743134E0,-4.781357117E0,2.379451904E0,8.633790485E0
7.575433375E0,7.075037384E0,-5.060227203E0,2.417323151E0,9.028039906E0
7.585500375E0,7.364834747E0,-5.358706512E0,2.390229492E0,9.416460236E0
7.595566375E0,7.650291138E0,-5.688171387E0,2.446512451E0,9.842137542E0
7.605632375E0,7.868537292E0,-6.038143616E0,2.531535645E0,1.023629475E1
7.615699375E0,7.968828735E0,-6.302643585E0,2.687511292E0,1.050943693E1
7.625765375E0,8.216264191E0,-6.477779388E0,2.890938263E0,1.085477531E1
7.635832375E0,8.638835449E0,-6.664441223E0,3.177143097E0,1.136391187E1
7.645898375E0,9.186097412E0,-6.920408936E0,3.375330963E0,1.198621311E1
7.655965375E0,9.747130737E0,-7.208260345E0,3.411106567E0,1.259369774E1
7.666031375E0,1.013991394E1,-7.478598175E0,3.420087891E0,1.305543131E1
7.676097375E0,1.051488419E1,-7.736661530E0,3.383414154E0,1.348577815E1
7.686164375E0,1.064840652E1,-7.791447601E0,3.292702789E0,1.359915839E1
7.696230375E0,1.041040146E1,-7.531737671E0,3.054098969E0,1.320723481E1
7.706297375E0,9.885143738E0,-6.973099365E0,2.793790283E0,1.241553243E1
7.716363375E0,9.327403564E0,-6.269712067E0,2.615511017E0,1.153909202E1
7.726430375E0,8.991801453E0,-5.545368347E0,2.607427826E0,1.088128133E1
7.736496375E0,8.821306000E0,-4.836592255E0,2.676584015E0,1.041019530E1
7.746562375E0,8.737779694E0,-4.174519043E0,2.737207947E0,1.006318590E1
7.756629375E0,8.738827515E0,-3.674708405E0,2.809357910E0,9.887521431E0
7.766695375E0,8.816965027E0,-3.370540924E0,2.960393829E0,9.892590663E0
7.776762375E0,8.959468689E0,-3.256777496E0,3.116219788E0,1.002943192E1
7.786828375E0,9.173822937E0,-3.306174774E0,3.259621582E0,1.028177766E1
7.796895375E0,9.377549286E0,-3.484154663E0,3.378175049E0,1.055887451E1
7.806961375E0,9.504485321E0,-3.725153503E0,3.308270416E0,1.073110726E1
7.817029125E0,9.534273376E0,-3.979175262E0,3.127296753E0,1.079426651E1
7.827095125E0,9.510472870E0,-4.209695892E0,2.894830170E0,1.079586381E1
7.837161125E0,9.411229248E0,-4.420756989E0,2.633024597E0,1.072600330E1
7.847228125E0,9.283395081E0,-4.547094269E0,2.432890778E0,1.061962561E1
7.857294125E0,9.169631653E0,-4.541705475E0,2.282303925E0,1.048418545E1
7.867361125E0,9.099427643E0,-4.499942322E0,2.224823456E0,1.039225210E1
7.877427125E0,8.979826355E0,-4.396357727E0,2.353256378E0,1.027146816E1
7.887494125E0,8.857830048E0,-4.224365387E0,2.592159576E0,1.015015800E1
7.897560125E0,8.691974945E0,-4.010609894E0,2.863245850E0,9.991676384E0
7.907627125E0,8.426127777E0,-3.836072845E0,3.090922394E0,9.760578130E0
7.917693125E0,8.163274384E0,-3.677402802E0,3.238216095E0,9.520944465E0
7.927759125E0,7.876321106E0,-3.526366882E0,3.395089874E0,9.273528606E0
7.937826125E0,7.655829620E0,-3.392694855E0,3.488645325E0,9.071535248E0
7.947892125E0,7.444618835E0,-3.259621582E0,3.562741241E0,8.873590458E0
7.957959125E0,7.268285522E0,-3.190166016E0,3.601660309E0,8.716483845E0
7.968025125E0,7.122189331E0,-3.149300995E0,3.610491943E0,8.583666448E0
7.978092125E0,7.084916840E0,-3.100652161E0,3.517834625E0,8.496190375E0
7.988158125E0,7.047344971E0,-3.094814301E0,3.323688354E0,8.383904280E0
7.998224125E0,7.066954193E0,-3.153492279E0,3.108286285E0,8.339532286E0
8.008291125E0,7.081024933E0,-3.221001892E0,2.886297913E0,8.297378076E0
8.018357125E0,7.135062561E0,-3.286864929E0,2.730921021E0,8.316882134E0
8.028424125E0,7.295528870E0,-3.296145630E0,2.670746155E0,8.439324767E0
8.038490125E0,7.469317474E0,-3.307521973E0,2.643053741E0,8.585810283E0
8.048557125E0,7.538773041E0,-3.282074890E0,2.677631836E0,8.647243884E0
8.058623125E0,7.667056274E0,-3.290607147E0,2.684218140E0,8.764523623E0
8.068690125E0,7.782915344E0,-3.312461700E0,2.681523743E0,8.873372716E0
8.078756125E0,7.873327332E0,-3.335813141E0,2.730172577E0,8.976122486E0
8.088822125E0,7.937992859E0,-3.384162598E0,2.817291412E0,9.077522681E0
8.098889125E0,8.038134613E0,-3.428620148E0,2.926863556E0,9.215941322E0
8.108955125E0,8.081394653E0,-3.432811432E0,3.112926636E0,9.315763313E0
8.119022125E0,8.155490570E0,-3.389850769E0,3.313060455E0,9.432893737E0
8.129088125E0,8.251141663E0,-3.269201660E0,3.473377075E0,9.530654046E0
8.139155125E0,8.342451782E0,-3.135529633E0,3.555855560E0,9.595423731E0
8.149221125E0,8.472381592E0,-2.962639160E0,3.545676727E0,9.650404348E0
8.159287125E0,8.623417511E0,-2.811453552E0,3.606450348E0,9.760844469E0
8.169354125E0,8.788673859E0,-2.678380280E0,3.644770660E0,9.884273483E0
8.179420125E0,8.911568298E0,-2.489323425E0,3.653901672E0,9.948053985E0
8.189487125E0,9.059161377E0,-2.345771942E0,3.561094666E0,1.001261435E1
8.199553125E0,9.219927063E0,-2.288740540E0,3.403322754E0,1.009098578E1
8.209620125E0,9.338330841E0,-2.264490967E0,3.121458893E0,1.010325927E1
8.219686125E0,9.441166992E0,-2.300266571E0,2.762804718E0,1.010247249E1
8.229753125E0,9.596543884E0,-2.452649689E0,2.416125641E0,1.019543075E1
8.239819125E0,9.825118561E0,-2.687062225E0,2.178569641E0,1.041630567E1
8.249885125E0,1.013497421E1,-3.036136322E0,2.044897614E0,1.077577989E1
8.259952125E0,1.047955765E1,-3.424428864E0,1.966760101E0,1.119892793E1
8.270018125E0,1.078192886E1,-3.863914948E0,1.964814148E0,1.162068515E1
8.280085125E0,1.102053268E1,-4.301754456E0,2.002236328E0,1.199859085E1
8.290151125E0,1.113205078E1,-4.681963806E0,2.031275940E0,1.224620029E1
8.300218125E0,1.116453323E1,-4.952900391E0,2.095941467E0,1.239237650E1
8.310284125E0,1.114357681E1,-5.048252106E0,2.219135284E0,1.243337102E1
8.320350125E0,1.113669113E1,-5.021308136E0,2.432741089E0,1.245622952E1
8.330417125E0,1.126602219E1,-4.921016693E0,2.692900085E0,1.258536341E1
8.340483125E0,1.162048508E1,-4.871918793E0,3.018473053E0,1.295694585E1
8.350550125E0,1.193393326E1,-4.868176575E0,3.185825043E0,1.327657288E1
8.360616125E0,1.210652435E1,-4.964426422E0,3.123554535E0,1.345251109E1
8.370683125E0,1.210472809E1,-5.140011292E0,2.912792816E0,1.346954046E1
8.380749125E0,1.181223633E1,-5.253026276E0,2.646945648E0,1.319581500E1
8.390816125E0,1.127844635E1,-5.250331879E0,2.485880585E0,1.268656530E1
8.400882125E0,1.071786209E1,-5.234015808E0,2.504891052E0,1.218777947E1
8.410948125E0,1.024679169E1,-5.208119659E0,2.673889618E0,1.180131077E1
8.421015125E0,9.922416229E0,-5.094805298E0,2.941982117E0,1.153545160E1
8.431081125E0,9.606573029E0,-4.893923035E0,3.273392944E0,1.126729024E1
8.441148125E0,9.454040222E0,-4.694837036E0,3.587739258E0,1.114864316E1
8.451214125E0,9.298813019E0,-4.463268585E0,3.908073120E0,1.103003742E1
8.461281125E0,9.129215698E0,-4.200714569E0,4.107159119E0,1.085621196E1
8.471347125E0,9.153914337E0,-3.972139893E0,4.248016205E0,1.084516873E1
8.481413125E0,9.336534576E0,-3.809577942E0,4.357139282E0,1.098491806E1
8.491480125E0,9.545200653E0,-3.653901672E0,4.311783600E0,1.109294058E1
8.501546125E0,9.702523499E0,-3.573967896E0,4.156706085E0,1.114407530E1
8.511613125E0,9.880802765E0,-3.593726807E0,4.000281372E0,1.124932828E1
8.521679125E0,1.008976822E1,-3.876039734E0,3.708687744E0,1.142722501E1
8.531746125E0,1.020637573E1,-4.221670990E0,3.395838318E0,1.155527280E1
8.541812125E0,1.010668304E1,-4.544250183E0,3.120860138E0,1.151238550E1
8.551879125E0,9.823771362E0,-4.811145172E0,2.926564178E0,1.132335549E1
8.561945125E0,9.511071625E0,-4.970264282E0,2.823877716E0,1.109676961E1
8.572011125E0,9.294921112E0,-5.120402069E0,2.804268494E0,1.097624697E1
8.582078125E0,9.172625427E0,-5.262456665E0,2.844834137E0,1.095096291E1
8.592144125E0,8.869805145E0,-5.379513245E0,2.873873749E0,1.076437441E1
8.602211125E0,8.833730164E0,-5.248685303E0,3.051105194E0,1.071880259E1
8.612277125E0,8.689280548E0,-5.147795105E0,3.309318237E0,1.062802795E1
8.622344125E0,8.487649841E0,-5.073549500E0,3.411555634E0,1.046039274E1
8.632410125E0,8.352480927E0,-4.975204010E0,3.520529022E0,1.033976388E1
8.642476125E0,8.153694305E0,-4.886588287E0,3.548221436E0,1.014649453E1
8.652543125E0,7.934550018E0,-4.856650543E0,3.614982605E0,9.980593055E0
8.662609125E0,7.780670013E0,-4.836292877E0,3.703149261E0,9.881390039E0
8.672676125E0,7.605833588E0,-4.854105835E0,3.729344788E0,9.763148087E0
8.682742125E0,7.485783234E0,-4.875810699E0,3.736080780E0,9.683428122E0
8.692809125E0,7.431446228E0,-4.912035370E0,3.725901947E0,9.655922008E0
8.702875125E0,7.444618835E0,-4.956343231E0,3.635939026E0,9.654415592E0
8.712942125E0,7.454049225E0,-5.043013000E0,3.541784821E0,9.671559837E0
8.723008125E0,7.395970001E0,-5.029990082E0,3.403322754E0,9.569941392E0
8.733074125E0,7.382498016E0,-4.969665527E0,3.218457184E0,9.463472886E0
8.743141125E0,7.416327667E0,-4.866979065E0,3.042572937E0,9.377987597E0
8.753207125E0,7.429799652E0,-4.715943146E0,2.860102386E0,9.253227993E0
8.763274125E0,7.405250702E0,-4.562811584E0,2.689457245E0,9.104403758E0
8.773340125E0,7.423961792E0,-4.432283020E0,2.552791443E0,9.015380503E0
8.783407125E0,7.412735138E0,-4.352199554E0,2.423460388E0,8.931038206E0
8.793473125E0,7.383994904E0,-4.298311615E0,2.373164978E0,8.867399590E0
8.803539125E0,7.302564240E0,-4.259392548E0,2.297422485E0,8.760594696E0
8.813606125E0,7.201075287E0,-4.250710602E0,2.210603027E0,8.649323190E0
8.823672250E0,7.067852325E0,-4.259691925E0,2.198777618E0,8.540148407E0
8.833739250E0,6.884184265E0,-4.247866516E0,2.161505127E0,8.373079920E0
8.843805250E0,6.693331146E0,-4.203558655E0,2.132016449E0,8.186335037E0
8.853872250E0,6.501729584E0,-4.123774567E0,2.141596527E0,7.991523005E0
8.863938250E0,6.325695648E0,-4.028722229E0,2.144590302E0,7.800275367E0
8.874005250E0,6.134393463E0,-3.973487091E0,2.174977112E0,7.625608714E0
8.884071250E0,5.930218048E0,-3.886967010E0,2.239642639E0,7.435858914E0
8.894137250E0,5.760770416E0,-3.777993622E0,2.264790344E0,7.251826453E0
8.904204250E0,5.632636871E0,-3.721860352E0,2.397115173E0,7.164147106E0
8.914270250E0,5.612728271E0,-3.720513153E0,2.484234009E0,7.177489490E0
8.924337250E0,5.600154419E0,-3.806733856E0,2.517764282E0,7.224409260E0
8.934403250E0,5.695955200E0,-4.018393707E0,2.493514709E0,7.403310694E0
8.944470250E0,5.863456879E0,-4.336332550E0,2.421813812E0,7.684340485E0
8.954536250E0,6.124364319E0,-4.733007660E0,2.366728363E0,8.093862055E0
8.964603250E0,6.439608765E0,-5.158872070E0,2.309397583E0,8.568304341E0
8.974669250E0,6.703060913E0,-5.547613678E0,2.345472565E0,9.011563942E0
8.984735250E0,6.838229828E0,-5.823190613E0,2.342478790E0,9.282141077E0
8.994802250E0,6.877448273E0,-5.946085052E0,2.218386841E0,9.358229660E0
9.004868250E0,6.962621155E0,-6.059549103E0,2.130070496E0,9.472773036E0
9.014935250E0,7.144642639E0,-6.123017120E0,2.091450806E0,9.639057193E0
9.025001250E0,7.473658447E0,-6.217919769E0,2.047292633E0,9.935265672E0
9.035068250E0,8.102949829E0,-6.455625458E0,2.104922791E0,1.057183030E1
9.045134250E0,8.858578491E0,-6.860832825E0,2.255659332E0,1.142949863E1
9.055200250E0,9.425599365E0,-7.277416534E0,2.446961517E0,1.215690485E1
9.065267250E0,9.945767670E0,-7.662116547E0,2.788251801E0,1.286081928E1
9.075333250E0,1.052251831E1,-7.924670563E0,3.088826752E0,1.353013843E1
9.085400250E0,1.082219513E1,-7.971672821E0,3.385509796E0,1.386106603E1
9.095466250E0,1.078866486E1,-7.725734253E0,3.604354706E0,1.375040479E1
9.105533250E0,1.071950867E1,-7.220983887E0,3.742816772E0,1.345582222E1
9.115599250E0,1.052132080E1,-6.626120911E0,3.841461639E0,1.301385789E1
9.125666250E0,1.041324554E1,-6.003715210E0,3.833528137E0,1.261650574E1
9.135732250E0,1.045186523E1,-5.434748383E0,3.671864319E0,1.233939076E1
9.145798250E0,1.041189835E1,-4.916825409E0,3.532354431E0,1.204409926E1
9.155865250E0,1.018257523E1,-4.430337067E0,3.477119293E0,1.163628305E1
9.165931250E0,9.871971130E0,-4.053271179E0,3.433709564E0,1.121049431E1
9.175998250E0,9.679770813E0,-3.907624054E0,3.376378784E0,1.097120880E1
9.186064250E0,9.595196686E0,-3.954776001E0,3.249742126E0,1.087514950E1
9.196131250E0,9.601333923E0,-4.174668732E0,3.050955505E0,1.090512731E1
9.206197250E0,9.653575287E0,-4.479734344E0,2.852168884E0,1.101791282E1
9.216263250E0,9.706116028E0,-4.708608398E0,2.654579773E0,1.110974685E1
9.226330250E0,9.682165833E0,-4.810995483E0,2.465672607E0,1.108916382E1
9.236396250E0,9.614356842E0,-4.795278168E0,2.287093964E0,1.098459599E1
9.246463250E0,9.557026062E0,-4.690645752E0,2.165995789E0,1.086418163E1
9.256529250E0,9.485923920E0,-4.554129639E0,2.077230377E0,1.072556457E1
9.266596250E0,9.467512207E0,-4.378245392E0,2.040556641E0,1.062857900E1
9.276662250E0,9.433083801E0,-4.180506592E0,2.027683411E0,1.051528437E1
9.286729250E0,9.335786133E0,-4.054917755E0,2.072440338E0,1.038721665E1
9.296795250E0,9.256151733E0,-3.936663666E0,2.222428436E0,1.030110935E1
9.306861250E0,9.115594025E0,-3.793710938E0,2.445314941E0,1.017181706E1
9.316928250E0,8.983269196E0,-3.674109650E0,2.674488373E0,1.006732811E1
9.326994250E0,8.797804871E0,-3.594774628E0,2.866988068E0,9.926902626E0
9.337061250E0,8.617429962E0,-3.493884430E0,2.995720367E0,9.769425166E0
9.347127250E0,8.424930267E0,-3.390000458E0,3.146157532E0,9.610924010E0
9.357194250E0,8.277337189E0,-3.259172516E0,3.247047729E0,9.469943790E0
9.367260250E0,8.186775513E0,-3.148702240E0,3.353027344E0,9.390442559E0
9.377326250E0,8.173004150E0,-3.076252899E0,3.458557892E0,9.392707354E0
9.387393250E0,8.167315979E0,-3.019520874E0,3.615581360E0,9.428413715E0
9.397459250E0,8.195906525E0,-2.995420990E0,3.737877045E0,9.493005608E0
9.407526250E0,8.217611389E0,-3.003204803E0,3.799099731E0,9.538424126E0
9.417592250E0,8.238118744E0,-3.019969940E0,3.870650940E0,9.590034284E0
9.427659250E0,8.242908783E0,-3.026855621E0,3.895798645E0,9.606489850E0
9.437725250E0,8.221503296E0,-3.037333832E0,3.919449463E0,9.601072718E0
9.447792250E0,8.195607147E0,-3.032244415E0,3.863166504E0,9.554398890E0
9.457858250E0,8.247549133E0,-3.033142548E0,3.741768951E0,9.551065663E0
9.467924250E0,8.363258514E0,-2.993924103E0,3.600163422E0,9.584824003E0
9.477991250E0,8.470285950E0,-2.961142273E0,3.415896606E0,9.601169578E0
9.488057250E0,8.602910156E0,-2.922971649E0,3.224444733E0,9.641103166E0
9.498124250E0,8.762478333E0,-2.872227173E0,3.048410797E0,9.712029852E0
9.508190250E0,8.915909271E0,-2.800825653E0,2.890938263E0,9.782412101E0
9.518257250E0,9.051227875E0,-2.720592499E0,2.785407715E0,9.853164249E0
9.528323250E0,9.170829163E0,-2.684517517E0,2.721790009E0,9.935737652E0
9.538389250E0,9.266480255E0,-2.648592224E0,2.692301331E0,1.000655703E1
9.548456250E0,9.285490723E0,-2.633773041E0,2.687960358E0,1.001909324E1
9.558522250E0,9.301806793E0,-2.618804169E0,2.705473938E0,1.003500544E1
9.568589250E0,9.252110138E0,-2.527494049E0,2.666854248E0,9.954992705E0
9.578655250E0,9.216484222E0,-2.383044434E0,2.689157867E0,9.892120715E0
9.588722250E0,9.178612976E0,-2.271077271E0,2.623594208E0,9.812643614E0
9.598788250E0,9.070986786E0,-2.262994080E0,2.443818054E0,9.663135628E0
9.608855250E0,9.083261261E0,-2.311942291E0,2.263892212E0,9.642402203E0
9.618921250E0,9.167985077E0,-2.530487823E0,2.083517303E0,9.736342401E0
9.628987250E0,9.271719360E0,-2.878364410E0,1.938019867E0,9.899781946E0
9.639054250E0,9.425299988E0,-3.340902557E0,1.832489319E0,1.016641170E1
9.649120250E0,9.597741394E0,-3.904779968E0,1.851948853E0,1.052585678E1
9.659187250E0,9.815987549E0,-4.530478821E0,1.939816132E0,1.098370322E1
9.669253250E0,1.008887009E1,-5.139412537E0,2.031874695E0,1.150336367E1
9.679320250E0,1.027493317E1,-5.673501892E0,2.151326294E0,1.193277336E1
9.689386250E0,1.037193146E1,-6.005661163E0,2.254012756E0,1.219530654E1
9.699452250E0,1.051159103E1,-6.210135956E0,2.257006531E0,1.241585330E1
9.709519250E0,1.072340057E1,-6.316414948E0,2.236050110E0,1.264469603E1
9.719585250E0,1.094134735E1,-6.311325531E0,2.210303650E0,1.282307896E1
9.729652250E0,1.108444977E1,-6.217470703E0,2.211052094E0,1.290002791E1
9.739718250E0,1.118324432E1,-6.057603149E0,2.271376648E0,1.291970051E1
9.749785250E0,1.132185608E1,-5.886209564E0,2.419718170E0,1.298795304E1
9.759851250E0,1.145807281E1,-5.724545746E0,2.602338409E0,1.307019594E1
9.769918250E0,1.153142029E1,-5.629792786E0,2.770438843E0,1.312796831E1
9.779984250E0,1.147678391E1,-5.522166595E0,2.904260559E0,1.306313983E1
9.790050250E0,1.130149841E1,-5.407055969E0,3.042722626E0,1.289256691E1
9.800117250E0,1.109253296E1,-5.300926666E0,3.158581696E0,1.269333484E1
9.810183250E0,1.079120956E1,-5.118306427E0,3.264261932E0,1.238154556E1
9.820250417E0,1.053748718E1,-4.810696106E0,3.336711273E0,1.205467027E1
9.830316417E0,1.040082138E1,-4.480033722E0,3.350931702E0,1.181001824E1
9.840383417E0,1.028391449E1,-4.165837097E0,3.328328705E0,1.158407821E1
9.850449417E0,1.023691223E1,-3.921395416E0,3.256478119E0,1.143574938E1
9.860516417E0,1.025726990E1,-3.795207825E0,3.154689789E0,1.138276135E1
9.870582417E0,1.026894562E1,-3.803440704E0,3.086581421E0,1.137736306E1
9.880648417E0,1.016027161E1,-3.914060669E0,3.041674805E0,1.130498897E1
9.890715417E0,1.003722748E1,-4.193978577E0,3.006497955E0,1.128602772E1
9.900781417E0,9.934990082E0,-4.562512207E0,2.986439667E0,1.133310935E1
9.910848417E0,9.830806732E0,-4.918621674E0,3.001258850E0,1.139496182E1
9.920914417E0,9.644294586E0,-5.205874329E0,3.035238190E0,1.137216850E1
9.930981417E0,9.423204346E0,-5.467679901E0,3.027454376E0,1.130742162E1
9.941047417E0,9.328451385E0,-5.723198547E0,2.995420990E0,1.134669792E1
9.951113417E0,9.253756714E0,-5.905070343E0,2.975213013E0,1.137337951E1
9.961180417E0,8.783434753E0,-6.219566345E0,2.774031372E0,1.111426928E1
9.971246417E0,8.897946625E0,-6.026168518E0,2.781366119E0,1.110063776E1
9.981313417E0,9.158255310E0,-5.531596985E0,3.099005585E0,1.113894255E1
9.991379417E0,8.848998413E0,-5.490881653E0,3.052153015E0,1.085219758E1
1.000144642E1,8.819210358E0,-5.302124176E0,3.036884766E0,1.072910347E1
1.001151242E1,8.627159729E0,-5.126090240E0,3.018173676E0,1.047922032E1
1.002157842E1,8.397088165E0,-4.962929535E0,2.954406281E0,1.019167679E1
1.003164542E1,8.262218628E0,-4.854105835E0,2.847977600E0,9.996878339E0
1.004171142E1,8.138575745E0,-4.840933228E0,2.726879425E0,9.854284401E0
1.005177842E1,8.005801849E0,-4.845723267E0,2.568957825E0,9.704300157E0
1.006184442E1,7.888745270E0,-4.881648560E0,2.407144318E0,9.584212975E0
1.007191142E1,7.755971375E0,-4.910688171E0,2.286794586E0,9.460411183E0
1.008197742E1,7.600594482E0,-4.915478210E0,2.210752716E0,9.317638654E0
1.009204442E1,7.490872650E0,-4.940476227E0,2.185155945E0,9.235604199E0
1.010211042E1,7.333100739E0,-4.905299377E0,2.212399292E0,9.095660452E0
1.011217642E1,7.173083496E0,-4.865332489E0,2.255659332E0,8.956147950E0
1.012224342E1,6.980583801E0,-4.852010193E0,2.377056885E0,8.827284551E0
1.013230942E1,6.792425079E0,-4.781057739E0,2.473007355E0,8.666678541E0
1.014237642E1,6.703360291E0,-4.686903534E0,2.549647980E0,8.567543915E0
1.015244242E1,6.627767487E0,-4.612657928E0,2.593806152E0,8.481258478E0
1.016250942E1,6.541397095E0,-4.547094269E0,2.601440277E0,8.380538990E0
1.017257542E1,6.514902191E0,-4.472399597E0,2.608176270E0,8.321591925E0
1.018264242E1,6.492598572E0,-4.419110413E0,2.547702026E0,8.256703862E0
1.019270842E1,6.414760437E0,-4.355492706E0,2.449206848E0,8.131302624E0
1.020277442E1,6.340963898E0,-4.277804260E0,2.347867584E0,8.001244568E0
1.021284142E1,6.252198486E0,-4.234394531E0,2.256707153E0,7.881168069E0
1.022290742E1,6.151607666E0,-4.173022156E0,2.171833649E0,7.744239936E0
1.023297442E1,6.030808868E0,-4.119583282E0,2.107916565E0,7.601640236E0
1.024304042E1,5.941594391E0,-4.030368805E0,2.067051544E0,7.471219358E0
1.025310742E1,5.871091003E0,-3.964206390E0,2.052681427E0,7.375509672E0
1.026317342E1,5.815706177E0,-3.942651215E0,2.081571350E0,7.328019939E0
1.027323942E1,5.870492249E0,-3.980821838E0,2.102677460E0,7.398031782E0
1.028330642E1,5.892496490E0,-4.093387756E0,2.134860535E0,7.485650788E0
1.029337242E1,6.011648712E0,-4.273163910E0,2.116748199E0,7.673361257E0
1.030343942E1,6.277795258E0,-4.535268860E0,2.076332245E0,8.018137721E0
1.031350542E1,6.591991882E0,-4.872966614E0,2.071093140E0,8.455151530E0
1.032357242E1,6.812782745E0,-5.219046936E0,2.106569366E0,8.836859971E0
1.033363842E1,7.013665009E0,-5.565276947E0,2.121837616E0,9.201412892E0
1.034370542E1,7.063511353E0,-5.761818237E0,2.167342987E0,9.369584711E0
1.035377142E1,7.103627930E0,-5.878725128E0,2.147883453E0,9.467541509E0
1.036383742E1,7.134613495E0,-5.959856415E0,2.148631897E0,9.541447334E0
1.037390442E1,7.264992371E0,-5.968238983E0,2.226470032E0,9.662150874E0
1.038397042E1,7.580087128E0,-6.031707001E0,2.421065369E0,9.985027177E0
1.039403742E1,8.125403137E0,-6.185287628E0,2.650538177E0,1.055013326E1
1.040410342E1,8.755892029E0,-6.422843628E0,2.849025421E0,1.122655385E1
1.041417042E1,9.398056641E0,-6.861281891E0,3.014730835E0,1.202036854E1
1.042423642E1,1.001372635E1,-7.322921906E0,3.102149048E0,1.278762016E1
1.043430242E1,1.051189041E1,-7.686665497E0,3.088826752E0,1.338377814E1
1.044436942E1,1.093700638E1,-7.959847412E0,3.116968231E0,1.388138215E1
1.045443542E1,1.114028366E1,-8.080047455E0,3.182681580E0,1.412524509E1
1.046450242E1,1.088895630E1,-7.900271301E0,3.212170258E0,1.383118555E1
1.047456842E1,1.032642609E1,-7.367678833E0,3.303929443E0,1.310853603E1
1.048463542E1,9.858499146E0,-6.724017334E0,3.437751160E0,1.241855658E1
1.049470142E1,9.519154816E0,-6.057603149E0,3.564986572E0,1.183291991E1
1.050476842E1,9.261989594E0,-5.374124451E0,3.797453156E0,1.136161588E1
1.051483442E1,9.121282196E0,-4.794829102E0,4.043391724E0,1.106965183E1
1.052490042E1,9.097930756E0,-4.403243408E0,4.321213989E0,1.099244226E1
1.053496742E1,9.157506866E0,-4.185596008E0,4.665797424E0,1.109724342E1
1.054503342E1,9.357940063E0,-4.083208923E0,4.959486694E0,1.135077731E1
1.055510042E1,9.747579803E0,-4.113446045E0,5.162314911E0,1.177222348E1
1.056516642E1,1.022882904E1,-4.205803986E0,5.176385651E0,1.221117108E1
1.057523342E1,1.065424438E1,-4.288432159E0,4.930746460E0,1.249863330E1
1.058529942E1,1.096065720E1,-4.271816711E0,4.595593414E0,1.262948546E1
1.059536542E1,1.121003860E1,-4.219874725E0,4.213138733E0,1.269735587E1
1.060543242E1,1.137649246E1,-4.115092621E0,3.838767242E0,1.269230877E1
1.061549842E1,1.137020554E1,-3.936963043E0,3.398981781E0,1.250337271E1
1.062556542E1,1.116917358E1,-3.674558716E0,2.961291962E0,1.212526579E1
1.063563142E1,1.082893112E1,-3.425776062E0,2.668351135E0,1.166712427E1
1.064569842E1,1.054586975E1,-3.233276367E0,2.413281555E0,1.129129633E1
1.065576442E1,1.042282562E1,-2.915337524E0,1.916464691E0,1.099123850E1
1.066583142E1,1.029573990E1,-2.888992310E0,1.830393677E0,1.084891136E1
1.067589742E1,9.915231171E0,-2.924767914E0,1.936522980E0,1.051742353E1
1.068596342E1,9.287885742E0,-2.856210480E0,2.488574982E0,1.003074101E1
1.069603042E1,8.785829773E0,-2.822979584E0,2.792443085E0,9.641460310E0
1.070609642E1,8.310717773E0,-2.846480713E0,2.877915344E0,9.244072646E0
1.071616342E1,7.754025421E0,-2.829715576E0,3.090623016E0,8.813861305E0
1.072622942E1,7.298822021E0,-2.849624176E0,3.511697388E0,8.586336785E0
1.073629642E1,7.146289215E0,-2.891686707E0,3.439996490E0,8.441852724E0
1.074636242E1,7.053631897E0,-2.863096161E0,3.487447815E0,8.373370577E0
1.075642842E1,7.088659058E0,-2.877765656E0,3.446433105E0,8.390978701E0
1.076649542E1,7.163952484E0,-2.961142273E0,3.311563568E0,8.429533322E0
1.077656142E1,7.215894470E0,-3.065175934E0,3.212170258E0,8.472453852E0
1.078662842E1,7.253616028E0,-3.137774963E0,3.045417023E0,8.469660090E0
1.079669442E1,7.310348053E0,-3.181334381E0,2.900069275E0,8.483659523E0
1.080676142E1,7.457641754E0,-3.250490570E0,2.743644562E0,8.585435048E0
1.081682742E1,7.594307556E0,-3.306923218E0,2.598745880E0,8.681170922E0
1.082689400E1,7.683821411E0,-3.350033569E0,2.533780975E0,8.756933392E0
1.083696000E1,7.815846863E0,-3.385210419E0,2.521506500E0,8.882854653E0
1.084702600E1,7.930957489E0,-3.408561859E0,2.550995178E0,9.001441942E0
1.085709300E1,8.039481812E0,-3.411106567E0,2.568658447E0,9.103127047E0
1.086715900E1,8.212671661E0,-3.407813416E0,2.552342377E0,9.250709146E0
1.087722600E1,8.307424622E0,-3.375780029E0,2.618355103E0,9.341572571E0
1.088729200E1,8.351732483E0,-3.309018860E0,2.693498840E0,9.378484807E0
1.089735900E1,8.373736725E0,-3.192860413E0,2.801125031E0,9.389362374E0
1.090742500E1,8.372389526E0,-3.096011810E0,2.905607758E0,9.387478466E0
1.091749100E1,8.314909058E0,-3.016976166E0,2.971021729E0,9.330960719E0
1.092755800E1,8.228089600E0,-2.968477020E0,3.026107178E0,9.255843502E0
1.093762400E1,8.195756836E0,-3.020269318E0,3.050955505E0,9.252069302E0
1.094769100E1,8.257278900E0,-3.145858154E0,3.064876556E0,9.352675909E0
1.095775700E1,8.318800964E0,-3.254382477E0,3.133134613E0,9.466255188E0
1.096782400E1,8.603209534E0,-3.515289917E0,3.209775238E0,9.832351426E0
1.097789000E1,9.038354645E0,-3.887565765E0,3.160527649E0,1.033411618E1
1.098795700E1,9.398954773E0,-4.353397064E0,3.038531342E0,1.079467876E1
1.099802300E1,9.803114319E0,-4.822820892E0,2.900817719E0,1.130377791E1
1.100808900E1,1.016341507E1,-5.234764252E0,2.781964874E0,1.176592925E1
1.101815600E1,1.037687119E1,-5.563630371E0,2.696193237E0,1.207902713E1
1.102822200E1,1.052087173E1,-5.796396332E0,2.445464630E0,1.225835428E1
1.103828900E1,1.067564987E1,-5.936504974E0,2.099533997E0,1.239433881E1
1.104835500E1,1.070918015E1,-5.840255127E0,1.663939819E0,1.231112566E1
1.105842200E1,1.062999481E1,-5.545368347E0,1.229543152E0,1.205237222E1
1.106848800E1,1.061697189E1,-5.240452423E0,8.952882385E-1,1.187366729E1
1.107855400E1,1.070424042E1,-5.069657593E0,6.644682312E-1,1.186270243E1
1.108862100E1,1.077219910E1,-5.044809265E0,5.430706787E-1,1.190736325E1
1.109868700E1,1.070034851E1,-5.062023468E0,6.462062073E-1,1.185491975E1
1.110875400E1,1.055110886E1,-5.157973938E0,9.548643494E-1,1.178313877E1
1.111882000E1,1.039648041E1,-5.272785187E0,1.404678955E0,1.174147314E1
1.112888700E1,1.028690826E1,-5.387746124E0,1.866169281E0,1.176141478E1
1.113895300E1,1.029603928E1,-5.565576324E0,2.254910889E0,1.191925701E1
1.114902000E1,1.028571075E1,-5.732928314E0,2.481838989E0,1.203419451E1
1.115908600E1,1.008991791E1,-5.814658356E0,2.605930939E0,1.193346434E1
1.116915200E1,9.811347198E0,-5.757926331E0,2.739004211E0,1.170121334E1
1.117921900E1,9.552834778E0,-5.583688660E0,2.882705383E0,1.143434395E1
1.118928500E1,9.510772247E0,-5.300627289E0,3.007096710E0,1.129575447E1
1.119935200E1,9.514664154E0,-4.888534241E0,3.142714691E0,1.114913703E1
1.120941800E1,9.568402405E0,-4.480183411E0,3.188669128E0,1.103603093E1
1.121948500E1,9.569749603E0,-4.129762115E0,3.202889557E0,1.090383163E1
1.122955100E1,9.524992676E0,-3.821403351E0,3.205434265E0,1.075190299E1
1.123961800E1,9.468260651E0,-3.532953186E0,3.228037262E0,1.060895577E1
1.124968400E1,9.263336792E0,-3.366948395E0,3.211421814E0,1.036624233E1
1.125975000E1,9.109905853E0,-3.307372284E0,3.170556793E0,1.019713325E1
1.126981700E1,8.942853241E0,-3.440595245E0,3.135829010E0,1.008195136E1
1.127988300E1,8.892258453E0,-3.733386383E0,3.120261383E0,1.013639312E1
1.128995000E1,8.772956543E0,-4.060605927E0,3.132535858E0,1.016199134E1
1.130001600E1,8.590635681E0,-4.413422241E0,2.880010986E0,1.007828262E1
1.131008300E1,8.215515747E0,-4.897216187E0,2.210603027E0,9.816526428E0
1.132014900E1,8.228688354E0,-5.093907166E0,2.173330536E0,9.918798711E0
1.133021500E1,8.395291901E0,-5.086572418E0,2.130220184E0,1.004450014E1
1.134028200E1,8.696615295E0,-4.874762878E0,2.550995178E0,1.029087009E1
1.135034800E1,8.795709229E0,-4.728217621E0,3.037333832E0,1.043771716E1
1.136041500E1,8.352630615E0,-4.985083466E0,2.988684998E0,1.017593894E1
1.137048100E1,7.635322266E0,-5.574108582E0,2.795736237E0,9.858243945E0
1.138054800E1,7.495363312E0,-5.651647339E0,3.018173676E0,9.860576107E0
1.139061400E1,7.699838104E0,-5.256319427E0,3.000809784E0,9.793939969E0
1.140068000E1,8.721014557E0,-3.956572266E0,3.141816559E0,1.007876829E1
1.141074700E1,8.489296417E0,-3.951183472E0,3.336711273E0,9.940505350E0
1.142081300E1,8.469387817E0,-4.392316132E0,3.226690063E0,1.007146959E1
1.143088000E1,8.588390350E0,-4.535268860E0,3.277733917E0,1.025049521E1
1.144094600E1,8.446784821E0,-4.702770538E0,3.315305786E0,1.022034623E1
1.145101300E1,8.297245789E0,-4.856949921E0,3.289709015E0,1.016151739E1
1.146107900E1,8.174800415E0,-4.984933777E0,3.213367767E0,1.009963658E1
1.147114600E1,8.038583679E0,-5.087919617E0,3.088677063E0,1.000228372E1
1.148121200E1,7.893984375E0,-5.123395844E0,2.939287720E0,9.859187927E0
1.149127800E1,7.720644836E0,-5.063220978E0,2.822380829E0,9.654553170E0
1.150134500E1,7.526498566E0,-4.934189301E0,2.757715302E0,9.412725344E0
1.151141100E1,7.415279846E0,-4.815037079E0,2.706671448E0,9.246460274E0
1.152147800E1,7.358398132E0,-4.739444275E0,2.753374329E0,9.175479568E0
1.153154400E1,7.309150543E0,-4.774621124E0,2.829565887E0,9.177534073E0
1.154161100E1,7.235354004E0,-4.828359375E0,2.903212738E0,9.170171537E0
1.155167700E1,7.143594818E0,-4.897066498E0,2.933150482E0,9.144155454E0
1.156174400E1,6.996301117E0,-4.896617432E0,2.948119354E0,9.034185039E0
1.157181000E1,6.804998932E0,-4.884492645E0,2.942730560E0,8.878397491E0
1.158187600E1,6.628216553E0,-4.813989258E0,2.879711609E0,8.683345334E0
1.159194300E1,6.385421448E0,-4.716691589E0,2.832859039E0,8.428871630E0
1.160200900E1,6.187083893E0,-4.616250458E0,2.832709351E0,8.222774328E0
1.161207600E1,6.011199646E0,-4.508923645E0,2.842289429E0,8.033898357E0
1.162214200E1,5.871390381E0,-4.384831696E0,2.816243591E0,7.850554246E0
1.163220900E1,5.812562714E0,-4.224365387E0,2.781964874E0,7.705223993E0
1.164227500E1,5.812263336E0,-4.164489899E0,2.761906586E0,7.665083769E0
1.165234100E1,5.888454895E0,-4.140539703E0,2.752176819E0,7.706649553E0
1.166240800E1,5.998176727E0,-4.211492157E0,2.699935455E0,7.810534022E0
1.167247400E1,6.192322998E0,-4.399351501E0,2.592608643E0,8.026255498E0
1.168254100E1,6.434519348E0,-4.684209137E0,2.487527161E0,8.338623739E0
1.169260700E1,6.729855194E0,-5.060376892E0,2.418969727E0,8.760695164E0
1.170267400E1,7.110214233E0,-5.484894104E0,2.379751282E0,9.289909899E0
1.171274000E1,7.469018097E0,-5.914500732E0,2.372865601E0,9.818250425E0
1.172280600E1,7.727081451E0,-6.297703857E0,2.361189880E0,1.024422175E1
1.173287300E1,7.787256317E0,-6.525829468E0,2.367476807E0,1.043229398E1
1.174293900E1,7.737709351E0,-6.601272583E0,2.343376923E0,1.043744993E1
1.175300600E1,7.661667480E0,-6.585555267E0,2.278561707E0,1.035676254E1
1.176307200E1,7.995922394E0,-6.662345581E0,2.205962677E0,1.063897997E1
1.177313900E1,8.861123199E0,-6.969057770E0,2.226919098E0,1.149114612E1
1.178320500E1,9.736353149E0,-7.494764557E0,2.274969177E0,1.249574140E1
1.179327200E1,1.022104523E1,-7.974666595E0,2.378104706E0,1.318030557E1
1.180333800E1,1.039273819E1,-8.162975006E0,2.713706818E0,1.349101081E1
1.181340400E1,1.057446030E1,-8.124355316E0,3.131038971E0,1.369772846E1
1.182347075E1,1.065663940E1,-7.775580597E0,3.566782837E0,1.366548780E1
1.183353675E1,1.042686722E1,-7.181166687E0,3.987408142E0,1.327358801E1
1.184360375E1,1.001806732E1,-6.312073975E0,4.334386597E0,1.260915770E1
1.185366975E1,9.616302795E0,-5.332810364E0,4.585564270E0,1.191383840E1
1.186373675E1,9.346114655E0,-4.424199829E0,4.745282135E0,1.137721872E1
1.187380275E1,9.216184845E0,-3.625311127E0,4.868925018E0,1.103573172E1
1.188386975E1,9.159003754E0,-2.930755463E0,4.919220428E0,1.080163909E1
1.189393575E1,9.205107880E0,-2.417323151E0,4.979095917E0,1.074098964E1
1.190400175E1,9.305099945E0,-2.191592560E0,5.036127319E0,1.080511644E1
1.191406875E1,9.463171234E0,-2.251767426E0,5.065166931E0,1.096713191E1
1.192413475E1,9.584568787E0,-2.572999420E0,4.995561676E0,1.111035199E1
1.193420175E1,9.570647736E0,-3.071313171E0,4.673281860E0,1.108466626E1
1.194426775E1,9.461824036E0,-3.616629181E0,4.288132782E0,1.099973652E1
1.195433475E1,9.291328583E0,-4.082759857E0,3.934568024E0,1.088478481E1
1.196440075E1,9.050629120E0,-4.408183136E0,3.557202759E0,1.067706221E1
1.197446675E1,8.789721680E0,-4.511767731E0,3.228037262E0,1.039401173E1
1.198453375E1,8.659492493E0,-4.429738312E0,2.942730560E0,1.016213830E1
1.199459975E1,8.776998138E0,-3.999083862E0,2.623743896E0,9.995619045E0
1.200466675E1,8.608149261E0,-3.739074554E0,2.277364197E0,9.657499672E0
1.201473275E1,8.381969604E0,-3.714974670E0,2.197879486E0,9.428102963E0
1.202479975E1,8.247249756E0,-3.421135712E0,2.385289764E0,9.241802062E0
1.203486575E1,7.951315155E0,-3.270997925E0,2.654729462E0,8.998356996E0
1.204493175E1,7.829468536E0,-3.007096710E0,2.886297913E0,8.869832232E0
1.205499875E1,7.550149384E0,-2.827021179E0,3.084186401E0,8.631860183E0
1.206506475E1,7.371271362E0,-2.747686157E0,3.180136871E0,8.485204254E0
1.207513175E1,7.194788361E0,-2.754272461E0,3.317401428E0,8.387857210E0
1.208519775E1,7.034771118E0,-2.814447327E0,3.430566101E0,8.317325424E0
1.209526475E1,6.868466949E0,-2.893632660E0,3.434907074E0,8.206554381E0
1.210533075E1,6.739285583E0,-2.992277527E0,3.406615906E0,8.122605918E0
1.211539775E1,6.620582428E0,-3.105591888E0,3.301534424E0,8.023524301E0
1.212546375E1,6.504124603E0,-3.252885590E0,3.096909943E0,7.904160468E0
1.213552975E1,6.477779388E0,-3.470982056E0,2.899919586E0,7.900561742E0
1.214559675E1,6.521039429E0,-3.643722839E0,2.759810944E0,7.963493442E0
1.215566275E1,6.585255890E0,-3.733685760E0,2.684367828E0,8.031925991E0
1.216572975E1,6.716981964E0,-3.743415527E0,2.672093353E0,8.140705707E0
1.217579575E1,6.858138428E0,-3.743565216E0,2.709066467E0,8.269666520E0
1.218586275E1,7.023694153E0,-3.738924866E0,2.726580048E0,8.411068747E0
1.219592875E1,7.230713654E0,-3.758085022E0,2.798430634E0,8.616126565E0
1.220599475E1,7.415579224E0,-3.755540314E0,2.936593323E0,8.815808449E0
1.221606175E1,7.660919037E0,-3.803291016E0,3.126248932E0,9.106488644E0
1.222612775E1,7.926766205E0,-3.835773468E0,3.328927460E0,9.414273132E0
1.223619475E1,8.159232788E0,-3.821702728E0,3.554059296E0,9.685547424E0
1.224626075E1,8.415499878E0,-3.749253387E0,3.715723114E0,9.933988998E0
1.225632775E1,8.643326111E0,-3.638334045E0,3.853885803E0,1.013888538E1
1.226639375E1,8.864865417E0,-3.538641357E0,3.974085846E0,1.033930268E1
1.227646075E1,9.014105072E0,-3.302282867E0,4.079915771E0,1.043095753E1
1.228652675E1,9.128167877E0,-2.943329315E0,4.110003204E0,1.043449867E1
1.229659275E1,9.271270294E0,-2.676134949E0,4.139491882E0,1.050016877E1
1.230665975E1,9.394464111E0,-2.472109222E0,4.026776276E0,1.051580749E1
1.231672575E1,9.516759796E0,-2.322121124E0,3.816014557E0,1.051298866E1
1.232679275E1,9.673783264E0,-2.223176880E0,3.553011475E0,1.054269836E1
1.233685875E1,9.811945953E0,-2.239492950E0,3.260370026E0,1.057920719E1
1.234692575E1,9.864935760E0,-2.397713928E0,2.895578613E0,1.055700550E1
1.235699175E1,9.908495178E0,-2.663411407E0,2.513572998E0,1.056362089E1
1.236705775E1,1.000309845E1,-3.014880524E0,2.306254120E0,1.069907899E1
1.237712475E1,1.017539017E1,-3.361260223E0,2.211800537E0,1.094206091E1
1.238719075E1,1.047371979E1,-3.695814514E0,2.148482208E0,1.131255174E1
1.239725775E1,1.084389999E1,-4.014651489E0,2.236948242E0,1.177758596E1
1.240732375E1,1.123503662E1,-4.292324066E0,2.332449646E0,1.225113934E1
1.241739075E1,1.137589371E1,-4.503983917E0,2.346071320E0,1.245796450E1
1.242745675E1,1.129805557E1,-4.650080109E0,2.374063110E0,1.244610302E1
1.243752375E1,1.119806351E1,-4.738995209E0,2.389630737E0,1.239213609E1
1.244758975E1,1.122830063E1,-4.873415680E0,2.524200897E0,1.249786004E1
1.245765575E1,1.135628448E1,-5.089566193E0,2.731519775E0,1.274088229E1
1.246772275E1,1.129775620E1,-5.253026276E0,3.051703949E0,1.282756708E1
1.247778875E1,1.101888611E1,-5.373226318E0,3.426823883E0,1.272912150E1
1.248785575E1,1.070424042E1,-5.425168304E0,3.804039459E0,1.258904008E1
1.249792175E1,1.046428940E1,-5.447022858E0,4.161795502E0,1.250967435E1
1.250798875E1,1.024215134E1,-5.391039276E0,4.426445160E0,1.239186771E1
1.251805475E1,9.915979614E0,-5.216951294E0,4.639152832E0,1.212703474E1
1.252812075E1,9.818382568E0,-5.016817474E0,4.758005676E0,1.200865154E1
1.253818775E1,9.790241089E0,-4.818330231E0,4.841232605E0,1.193744780E1
1.254825375E1,9.754615173E0,-4.579277344E0,4.832251282E0,1.180986666E1
1.255832075E1,9.755363617E0,-4.283941498E0,4.785997467E0,1.168011326E1
1.256838675E1,9.845326538E0,-3.999233551E0,4.624782715E0,1.158934592E1
1.257845375E1,9.985135803E0,-3.819756775E0,4.402494965E0,1.156180958E1
1.258851975E1,1.011252090E1,-3.715573425E0,4.133803711E0,1.153936298E1
1.259858575E1,1.021071671E1,-3.764371948E0,3.830833740E0,1.153709318E1
1.260865275E1,1.025382706E1,-4.005819855E0,3.538940735E0,1.156337596E1
1.261871875E1,1.019320312E1,-4.361180878E0,3.330424347E0,1.157639905E1
1.262878575E1,1.002839584E1,-4.712500305E0,3.210972748E0,1.153632213E1
1.263885175E1,9.775721283E0,-4.961881714E0,3.233575745E0,1.142982978E1
1.264891875E1,9.459878082E0,-5.080435181E0,3.309018860E0,1.123609010E1
1.265898475E1,9.128766632E0,-5.073699188E0,3.415297852E0,1.098822384E1
1.266905175E1,8.815468140E0,-5.011428680E0,3.488795013E0,1.072373939E1
1.267911775E1,8.603808289E0,-4.910987549E0,3.602708130E0,1.054148100E1
1.268918375E1,8.527616730E0,-4.813989258E0,3.718417511E0,1.047479682E1
1.269925075E1,8.399632874E0,-4.798721008E0,3.797752533E0,1.039252039E1
1.270931675E1,8.015980682E0,-5.054389343E0,3.764821014E0,1.019689537E1
1.271938375E1,8.122858429E0,-4.951403503E0,3.942351837E0,1.029754163E1
1.272944975E1,8.242459717E0,-4.699627075E0,4.242777100E0,1.039354580E1
1.273951675E1,7.976612549E0,-4.794829102E0,4.241280212E0,1.022766795E1
1.274958275E1,7.931705933E0,-4.736300812E0,4.201313324E0,1.014867174E1
1.275964875E1,7.845634918E0,-4.629872131E0,4.170926514E0,1.001929794E1
1.276971575E1,7.760911102E0,-4.550387421E0,4.078119507E0,9.877693330E0
1.277978175E1,7.761809235E0,-4.468208313E0,4.002676392E0,9.809790335E0
1.278984875E1,7.814349976E0,-4.392166443E0,3.896547089E0,9.774368052E0
1.279991475E1,7.898774414E0,-4.314777374E0,3.780837708E0,9.762308887E0
1.280998175E1,7.969427490E0,-4.272116089E0,3.642225952E0,9.748259346E0
1.282004775E1,8.013136597E0,-4.287234650E0,3.482059021E0,9.732187528E0
1.283011537E1,8.037835236E0,-4.268822937E0,3.350482635E0,9.698215219E0
1.284018137E1,8.005203094E0,-4.271217957E0,3.227737885E0,9.630413868E0
1.285024737E1,7.922874298E0,-4.318818970E0,3.112327881E0,9.545193517E0
1.286031438E1,7.812853088E0,-4.378395081E0,3.013084259E0,9.449322389E0
1.287038037E1,7.657176819E0,-4.393064575E0,2.942880249E0,9.305477815E0
1.288044737E1,7.522307281E0,-4.368365936E0,2.923420715E0,9.176824967E0
1.289051337E1,7.377109222E0,-4.356690216E0,2.926713867E0,9.053626024E0
1.290058037E1,7.223229218E0,-4.359983368E0,2.942580872E0,8.935506560E0
1.291064637E1,7.055278473E0,-4.344715118E0,2.967578888E0,8.801137895E0
1.292071237E1,6.856042786E0,-4.333937531E0,3.010389862E0,8.651634777E0
1.293077937E1,6.651418304E0,-4.290527802E0,2.984044647E0,8.458990290E0
1.294084538E1,6.399641876E0,-4.216132507E0,2.997217255E0,8.228882107E0
1.295091237E1,6.297254791E0,-4.176464996E0,2.942131805E0,8.108909750E0
1.296097837E1,6.181395721E0,-4.120930481E0,2.857707367E0,7.959787214E0
1.297104537E1,6.069278870E0,-4.021537170E0,2.806214447E0,7.802803774E0
1.298111137E1,5.991291046E0,-3.943998413E0,2.723286896E0,7.672482219E0
1.299117837E1,5.896238708E0,-3.934118958E0,2.641706543E0,7.564491810E0
1.300124437E1,5.775439911E0,-3.958069153E0,2.553539886E0,7.452689685E0
1.301131037E1,5.734125824E0,-4.047583008E0,2.506238251E0,7.452808688E0
1.302137738E1,5.766308899E0,-4.199816437E0,2.468816071E0,7.548763423E0
1.303144337E1,5.956712952E0,-4.436324615E0,2.381846924E0,7.799782052E0
1.304151037E1,6.292614441E0,-4.728217621E0,2.300116882E0,8.200218049E0
1.305157638E1,6.654412079E0,-5.060526581E0,2.248025208E0,8.657005644E0
1.306164337E1,6.937024384E0,-5.345982971E0,2.200723572E0,9.030228428E0
1.307170937E1,7.065157928E0,-5.534291382E0,2.155068512E0,9.229797286E0
1.308177537E1,7.099736023E0,-5.658832397E0,2.123484192E0,9.324045303E0
1.309184237E1,7.019802246E0,-5.648653564E0,2.118843842E0,9.256047207E0
1.310190837E1,6.925348663E0,-5.570815430E0,2.150428162E0,9.144330481E0
1.311197537E1,6.982529755E0,-5.560187531E0,2.313139801E0,9.220738739E0
1.312204137E1,7.363337860E0,-5.645959167E0,2.504142609E0,9.610740324E0
1.313210838E1,7.933502197E0,-5.968238983E0,2.662962341E0,1.027870138E1
1.314217437E1,8.601712646E0,-6.462660828E0,2.787653046E0,1.111424559E1
1.315224037E1,9.181756439E0,-6.973698120E0,2.817291412E0,1.186904578E1
1.316230737E1,9.563911743E0,-7.307953033E0,2.779719543E0,1.235319498E1
1.317237337E1,9.782457275E0,-7.433990936E0,2.723735962E0,1.258488892E1
1.318244037E1,9.787995758E0,-7.429799652E0,2.573897552E0,1.255514765E1
1.319250637E1,9.640252991E0,-7.200626221E0,2.324815521E0,1.225513210E1
1.320257337E1,9.443562012E0,-6.811136169E0,2.099084930E0,1.183125509E1
1.321263938E1,9.319619751E0,-6.333778839E0,2.019151154E0,1.144766518E1
1.322270637E1,9.367370453E0,-5.821993103E0,2.119592285E0,1.123102419E1
1.323277237E1,9.577084351E0,-5.291945343E0,2.273322601E0,1.117556378E1
1.324283837E1,9.773775330E0,-4.694837036E0,2.395468597E0,1.110434369E1
1.325290537E1,9.977202301E0,-4.235741730E0,2.608176270E0,1.114848228E1
1.326297137E1,1.021475830E1,-3.934118958E0,2.875520325E0,1.131756141E1
1.327303837E1,1.041863434E1,-3.739074554E0,3.059787140E0,1.148437710E1
1.328310437E1,1.060065582E1,-3.672912140E0,3.249143372E0,1.167994521E1
1.329317138E1,1.081501007E1,-3.790567474E0,3.370840302E0,1.194551836E1
1.330323737E1,1.103400467E1,-4.014052734E0,3.411405945E0,1.222700163E1
1.331330337E1,1.117456238E1,-4.275858307E0,3.265160065E0,1.240222072E1
1.332337037E1,1.122081619E1,-4.464166718E0,3.078647919E0,1.246248665E1
1.333343637E1,1.118548965E1,-4.530778198E0,2.889441376E0,1.240935137E1
1.334350337E1,1.106978027E1,-4.484674072E0,2.664608917E0,1.223733948E1
1.335356937E1,1.095841187E1,-4.237537994E0,2.420915680E0,1.199601399E1
1.336363637E1,1.105151825E1,-3.616030426E0,1.889520721E0,1.178057809E1
1.337370237E1,1.052266800E1,-3.771407318E0,1.737137604E0,1.131228103E1
1.338376937E1,1.015368530E1,-3.893104248E0,1.879790955E0,1.103572381E1
1.339383537E1,9.672735443E0,-3.736380157E0,2.020498352E0,1.056431546E1
1.340390138E1,9.335337067E0,-3.468287659E0,1.858834534E0,1.013078493E1
1.341396837E1,9.264983368E0,-3.059787140E0,1.351539459E0,9.850323500E0
1.342403437E1,8.600215759E0,-2.877166901E0,1.408720551E0,9.177488440E0
1.343410137E1,8.153843994E0,-3.011587372E0,1.794318695E0,8.875494913E0
1.344416737E1,7.997868347E0,-3.086282043E0,2.105970612E0,8.827578783E0
1.345423437E1,7.880362701E0,-3.132835236E0,2.397264862E0,8.812584850E0
1.346430037E1,7.593858490E0,-3.206931152E0,2.441123657E0,8.597102936E0
1.347436637E1,7.271279297E0,-3.292403412E0,2.440973969E0,8.346842322E0
1.348443338E1,7.092700653E0,-3.349734192E0,2.348017273E0,8.187814533E0
1.349449937E1,7.053781586E0,-3.455713806E0,2.424657898E0,8.220508408E0
1.350456637E1,7.037016449E0,-3.550616455E0,2.455044708E0,8.255526769E0
1.351463237E1,7.124734039E0,-3.584146729E0,2.327210541E0,8.308059449E0
1.352469937E1,7.261399841E0,-3.584296417E0,2.322719879E0,8.424377490E0
1.353476537E1,7.384144592E0,-3.571872253E0,2.302960968E0,8.519829340E0
1.354483237E1,7.527845764E0,-3.543132019E0,2.191293182E0,8.603720833E0
1.355489837E1,7.686964874E0,-3.500770111E0,2.098635864E0,8.703395478E0
1.356496438E1,7.855813751E0,-3.443439331E0,1.990560608E0,8.805306108E0
1.357503137E1,7.974965973E0,-3.356769562E0,1.915117493E0,8.862034708E0
1.358509737E1,8.042924652E0,-3.236569519E0,1.944157104E0,8.885030448E0
1.359516437E1,8.103548584E0,-3.200793915E0,2.016756134E0,8.943147468E0
1.360523037E1,8.194409637E0,-3.198249207E0,2.188299408E0,9.064535377E0
1.361529737E1,8.322543182E0,-3.190166016E0,2.369572449E0,9.222622069E0
1.362536337E1,8.436605988E0,-3.209475861E0,2.547702026E0,9.379117309E0
1.363542937E1,8.570427704E0,-3.197351074E0,2.682870941E0,9.532737351E0
1.364549638E1,8.712482300E0,-3.157084808E0,2.724783783E0,9.659139660E0
1.365556237E1,8.815917206E0,-3.105442200E0,2.705773315E0,9.730641123E0
1.366562937E1,8.805888062E0,-3.082090759E0,2.613415375E0,9.688802192E0
1.367569537E1,8.797954559E0,-3.047662354E0,2.459535370E0,9.630242182E0
1.368576237E1,8.750952301E0,-3.023861847E0,2.330653381E0,9.547505005E0
1.369582837E1,8.724158020E0,-3.038681030E0,2.178569641E0,9.491611098E0
1.370589437E1,8.825048218E0,-3.136128387E0,2.070644073E0,9.591889500E0
1.371596137E1,9.061406708E0,-3.361260223E0,2.011367340E0,9.871816469E0
1.372602737E1,9.298214264E0,-3.675007782E0,2.012265472E0,1.019861182E1
1.373609437E1,9.474547577E0,-4.025279388E0,2.032623138E0,1.049292537E1
1.374616037E1,9.768386536E0,-4.426744537E0,2.060914307E0,1.092084294E1
1.375622738E1,1.006596771E1,-4.842579803E0,2.089654541E0,1.136401959E1
1.376629337E1,1.020128632E1,-5.212011566E0,2.113155670E0,1.164889411E1
1.377636037E1,1.024170227E1,-5.512586517E0,2.146685944E0,1.182748224E1
1.378642637E1,1.010937744E1,-5.698499908E0,2.230661316E0,1.181728663E1
1.379649237E1,9.941875763E0,-5.654491425E0,2.348316650E0,1.167599067E1
1.380655937E1,1.001447479E1,-5.544470215E0,2.501148834E0,1.171693649E1
1.381662537E1,1.032492920E1,-5.465284882E0,2.726879425E0,1.199622329E1
1.382669212E1,1.076336746E1,-5.451812897E0,2.935246124E0,1.241724659E1
1.383675812E1,1.108474915E1,-5.554798737E0,3.066373444E0,1.277223938E1
1.384682512E1,1.107726471E1,-5.673352203E0,3.152893524E0,1.283874824E1
1.385689112E1,1.084644470E1,-5.680686951E0,3.194506989E0,1.265387063E1
1.386695712E1,1.049422714E1,-5.584736481E0,3.262166290E0,1.232719813E1
1.387702412E1,1.013751892E1,-5.410947876E0,3.287313995E0,1.195215797E1
1.388709012E1,9.913434906E0,-5.115312653E0,3.358715515E0,1.165004657E1
1.389715713E1,9.801916809E0,-4.779111786E0,3.410956879E0,1.142594020E1
1.390722312E1,9.769584045E0,-4.423900452E0,3.426973572E0,1.125876616E1
1.391729012E1,9.777367859E0,-4.096980286E0,3.463796997E0,1.115258084E1
1.392735612E1,9.855505371E0,-3.797004089E0,3.464395752E0,1.111531664E1
1.393742212E1,1.001163071E1,-3.628903656E0,3.446882172E0,1.119297493E1
1.394748912E1,1.016715729E1,-3.554957428E0,3.370989990E0,1.128593741E1
1.395755512E1,1.037732025E1,-3.622467041E0,3.293600922E0,1.147426904E1
1.396762212E1,1.058194473E1,-3.879332886E0,3.099454651E0,1.168902892E1
1.397768812E1,1.076695999E1,-4.320764923E0,2.897075500E0,1.195782102E1
1.398775512E1,1.084839066E1,-4.784500580E0,2.728825378E0,1.216657362E1
1.399782112E1,1.081141754E1,-5.150339813E0,2.604883118E0,1.225553612E1
1.400788812E1,1.068043991E1,-5.418432312E0,2.549348602E0,1.224460631E1
1.401795412E1,1.043210632E1,-5.588179321E0,2.520458679E0,1.209997117E1
1.402802012E1,1.022179367E1,-5.613476715E0,2.568957825E0,1.194134544E1
1.403808712E1,1.012629227E1,-5.569019165E0,2.719095612E0,1.187220495E1
1.404815312E1,1.008288254E1,-5.479654999E0,2.914589081E0,1.184001557E1
1.405822012E1,1.002839584E1,-5.341043243E0,3.063978424E0,1.176789828E1
1.406828612E1,9.877060547E0,-5.229525146E0,3.162024536E0,1.161476033E1
1.407835312E1,9.730365601E0,-5.201383667E0,3.157533875E0,1.147625492E1
1.408841913E1,9.683962097E0,-5.296136627E0,3.061733093E0,1.145436138E1
1.409848512E1,9.382638702E0,-5.378914490E0,2.988385620E0,1.122038675E1
1.410855212E1,8.984017639E0,-5.369484100E0,2.875370636E0,1.085410930E1
1.411861812E1,8.621172180E0,-5.357209625E0,2.807711334E0,1.053126525E1
1.412868512E1,8.331674194E0,-5.421875153E0,2.744393005E0,1.031238178E1
1.413875112E1,8.043074341E0,-5.465883636E0,2.702929230E0,1.009320342E1
1.414881812E1,7.790399780E0,-5.428760834E0,2.660717010E0,9.861094662E0
1.415888412E1,7.645351410E0,-5.354664917E0,2.636317749E0,9.699175523E0
1.416895113E1,7.539820862E0,-5.265300751E0,2.602937164E0,9.557592401E0
1.417901712E1,7.404951324E0,-5.178181915E0,2.506088562E0,9.376958566E0
1.418908312E1,7.290589142E0,-5.114863586E0,2.391876068E0,9.221474430E0
1.419915012E1,7.133565674E0,-5.075495453E0,2.307751007E0,9.053956485E0
1.420921612E1,6.936725006E0,-5.027145996E0,2.222278748E0,8.850360078E0
1.421928312E1,6.743327179E0,-5.028343506E0,2.188898163E0,8.691833812E0
1.422934912E1,6.586154022E0,-4.997507629E0,2.209106140E0,8.557608150E0
1.423941612E1,6.456523590E0,-4.953798523E0,2.174528046E0,8.423502175E0
1.424948213E1,6.342460785E0,-4.909340973E0,2.135758667E0,8.299994137E0
1.425954812E1,6.217321014E0,-4.835544434E0,2.115550690E0,8.155557938E0
1.426961512E1,6.136040039E0,-4.741689606E0,2.146386566E0,8.046215444E0
1.427968112E1,6.028713226E0,-4.600832520E0,2.173031158E0,7.888923086E0
1.428974812E1,5.917644196E0,-4.402944031E0,2.270628204E0,7.717524305E0
1.429981412E1,5.835914154E0,-4.176315308E0,2.350112915E0,7.551326657E0
1.430988112E1,5.910309448E0,-3.986360321E0,2.401456146E0,7.522620421E0
1.431994712E1,5.952671356E0,-3.799997864E0,2.449805603E0,7.475013547E0
1.433001312E1,5.886209564E0,-3.672313385E0,2.539469147E0,7.387980250E0
1.434008012E1,5.794300690E0,-3.496129761E0,2.600542145E0,7.249804358E0
1.435014612E1,5.715265045E0,-3.344495087E0,2.592908020E0,7.111474806E0
1.436021313E1,5.748196564E0,-3.334465942E0,2.501448212E0,7.100540121E0
1.437027912E1,5.936355286E0,-3.343746643E0,2.602039032E0,7.293254611E0
1.438034612E1,6.490203552E0,-3.275638275E0,2.951861572E0,7.846402679E0
1.439041212E1,7.094796295E0,-3.107238464E0,3.316952362E0,8.425748532E0
1.440047912E1,7.737260284E0,-3.050805817E0,3.712130585E0,9.107827750E0
1.441054512E1,8.297694855E0,-3.094065857E0,4.207001495E0,9.804276873E0
1.442061112E1,8.672066345E0,-3.192561035E0,4.528083801E0,1.029080772E1
1.443067812E1,8.820707245E0,-3.252286835E0,4.462669830E0,1.040661655E1
1.444074413E1,8.633895721E0,-3.358715515E0,4.180207214E0,1.016362424E1
1.445081112E1,8.189170532E0,-3.478017426E0,3.852089539E0,9.695241773E0
1.446087712E1,7.848628693E0,-3.516038361E0,3.624113617E0,9.332614726E0
1.447094412E1,7.787106628E0,-3.468587036E0,3.691174164E0,9.289504420E0
1.448101012E1,8.179740143E0,-3.424728241E0,3.983665924E0,9.721445701E0
1.449107612E1,8.979077911E0,-3.543581085E0,4.330195312E0,1.057976363E1
1.450114312E1,9.662406921E0,-3.866759033E0,4.573289795E0,1.136788954E1
1.451120912E1,9.974657593E0,-4.183799744E0,4.874613190E0,1.186422472E1
1.452127613E1,1.017299515E1,-4.472848663E0,5.121599579E0,1.223629796E1
1.453134212E1,1.001013382E1,-4.513264618E0,5.190007324E0,1.214530826E1
1.454140912E1,9.467811584E0,-4.287833405E0,5.048401794E0,1.155471039E1
1.455147512E1,8.897796936E0,-4.011957092E0,4.772675171E0,1.086485243E1
1.456154212E1,8.411607971E0,-3.602558441E0,4.605023804E0,1.024401387E1
1.457160812E1,8.213120728E0,-3.057541809E0,4.758305054E0,9.972230492E0
1.458167412E1,8.182434540E0,-2.558030548E0,4.960684204E0,9.904753559E0
1.459174112E1,8.030051422E0,-2.113005981E0,5.069657593E0,9.728717707E0
1.460180713E1,7.805218964E0,-1.860930176E0,5.076842651E0,9.495200656E0
1.461187412E1,7.761360168E0,-1.727707214E0,5.190306702E0,9.495418239E0
1.462194012E1,8.143365784E0,-1.654359741E0,5.455106049E0,9.940296497E0
1.463200712E1,8.525521088E0,-1.713486786E0,5.546416168E0,1.031422702E1
1.464207312E1,8.694369965E0,-1.943708038E0,5.506149902E0,1.047319229E1
1.465213912E1,8.743617554E0,-2.289488983E0,5.550906830E0,1.060684564E1
1.466220612E1,8.675060120E0,-2.628533936E0,5.513185272E0,1.060948022E1
1.467227212E1,8.609795837E0,-2.866089935E0,5.369334412E0,1.054385166E1
1.468233912E1,8.715027008E0,-3.008294220E0,5.273084564E0,1.062106166E1
1.469240512E1,8.941506042E0,-2.968926086E0,5.256918182E0,1.078889435E1
1.470247212E1,9.120833130E0,-2.809058533E0,5.433700562E0,1.098205393E1
1.471253813E1,9.202413483E0,-2.651136932E0,5.661826172E0,1.112516142E1
1.472260412E1,9.147777100E0,-2.465971985E0,5.746250610E0,1.108071477E1
1.473267112E1,8.954828339E0,-2.194436646E0,5.617218933E0,1.079618689E1
1.474273712E1,8.640182648E0,-1.984273682E0,5.385500793E0,1.037273913E1
1.475280412E1,8.164771271E0,-1.960922241E0,5.016518097E0,9.781316872E0
1.476287012E1,7.635322266E0,-2.004930725E0,4.563260651E0,9.118181895E0
1.477293712E1,7.168742523E0,-2.057022400E0,4.184697876E0,8.551836460E0
1.478300312E1,6.908882904E0,-2.149080963E0,4.155807953E0,8.343976972E0
1.479307013E1,7.007378082E0,-2.122436371E0,4.372557220E0,8.528032621E0
1.480313612E1,7.059619446E0,-2.005529480E0,4.711003418E0,8.720890346E0
1.481320212E1,7.082970886E0,-1.881138153E0,4.953948212E0,8.845832929E0
1.482326850E1,7.138954468E0,-1.761985931E0,5.105582886E0,8.951884825E0
1.483333450E1,7.203021240E0,-1.754501495E0,5.181175690E0,9.044687502E0
1.484340150E1,7.187603302E0,-1.856439514E0,5.086422729E0,8.998872434E0
1.485346750E1,7.297474823E0,-2.088157654E0,4.850213928E0,9.007669861E0
1.486353450E1,7.353009338E0,-2.298320618E0,4.562063141E0,8.953292361E0
1.487360050E1,7.301815796E0,-2.442620544E0,4.264332275E0,8.801558884E0
1.488366650E1,7.230264587E0,-2.517464905E0,4.101021881E0,8.685202129E0
1.489373350E1,7.346423035E0,-2.515069885E0,4.018842773E0,8.743374930E0
1.490379950E1,7.589218140E0,-2.456990662E0,4.198020172E0,9.014233658E0
1.491386650E1,7.853119354E0,-2.286046143E0,4.523293762E0,9.346532888E0
1.492393250E1,7.980803833E0,-2.054328003E0,4.827461243E0,9.550804962E0
1.493399950E1,8.001161499E0,-1.885928192E0,5.033283234E0,9.638944475E0
1.494406550E1,8.073012085E0,-1.853146362E0,5.155129852E0,9.756179547E0
1.495413150E1,8.073161774E0,-1.913770294E0,5.217849426E0,9.801245349E0
1.496419850E1,7.994874573E0,-1.918560333E0,5.222489777E0,9.740292226E0
1.497426450E1,8.039631500E0,-1.831591187E0,5.099595337E0,9.695167535E0
1.498433150E1,8.113278351E0,-1.713786163E0,4.868326263E0,9.615765660E0
1.499439750E1,8.062384186E0,-1.615440674E0,4.549040222E0,9.397098184E0
1.500446450E1,7.986941071E0,-1.607806549E0,4.127217407E0,9.132918104E0
1.501453050E1,8.009843445E0,-1.652114410E0,3.771407318E0,9.006141638E0
1.502459750E1,8.096513214E0,-1.764081573E0,3.642824707E0,9.051833067E0
1.503466350E1,8.081095276E0,-1.994153137E0,3.458258514E0,9.013340088E0
1.504472950E1,8.012088776E0,-2.342927856E0,3.368594971E0,9.001683707E0
1.505479650E1,8.215216370E0,-2.746788025E0,3.403023376E0,9.306728349E0
1.506486250E1,8.336015167E0,-3.023412781E0,3.653302917E0,9.590453374E0
1.507492950E1,8.459358673E0,-3.248394928E0,3.999383240E0,9.904942456E0
1.508499550E1,8.614136810E0,-3.459456024E0,4.278852081E0,1.022153433E1
1.509506250E1,8.846753082E0,-3.732488251E0,4.468807068E0,1.059088029E1
1.510512850E1,9.260941772E0,-4.007167053E0,4.594545593E0,1.108748301E1
1.511519450E1,9.755662994E0,-4.245321808E0,4.726271667E0,1.164187964E1
1.512526150E1,1.020128632E1,-4.378993835E0,4.910688171E0,1.213905630E1
1.513532750E1,1.063643143E1,-4.304897919E0,5.175337830E0,1.258769007E1
1.514539450E1,1.099568436E1,-4.101171570E0,5.334007874E0,1.289093956E1
1.515546050E1,1.131272507E1,-3.911366272E0,5.434449005E0,1.314571301E1
1.516552750E1,1.158021881E1,-3.842060394E0,5.515131226E0,1.338953204E1
1.517559350E1,1.167377426E1,-3.851490784E0,5.693111115E0,1.354704768E1
1.518566050E1,1.168544998E1,-3.867956543E0,5.890700226E0,1.364592167E1
1.519572650E1,1.140178986E1,-3.887565765E0,5.900729370E0,1.341389528E1
1.520579250E1,1.096410004E1,-3.846101990E0,5.635630646E0,1.291372614E1
1.521585950E1,1.053419403E1,-3.764072571E0,5.259313202E0,1.236114321E1
1.522592550E1,1.025173141E1,-3.596271515E0,4.971461792E0,1.194766078E1
1.523599250E1,9.895771637E0,-3.311114502E0,4.812941437E0,1.149148297E1
1.524605850E1,9.569599915E0,-2.999312897E0,4.666845245E0,1.106130937E1
1.525612550E1,9.422904968E0,-2.707868958E0,4.659809875E0,1.085529919E1
1.526619150E1,9.544452209E0,-2.619552612E0,4.586462402E0,1.090844908E1
1.527625750E1,9.715546417E0,-2.578687592E0,4.562811584E0,1.103905437E1
1.528632450E1,9.960886230E0,-2.667602692E0,4.559967499E0,1.127513469E1
1.529639050E1,1.023840912E1,-2.824177094E0,4.658612366E0,1.159757159E1
1.530645750E1,1.070049820E1,-3.008294220E0,4.830455017E0,1.211956235E1
1.531652350E1,1.108070755E1,-3.191812592E0,4.878954163E0,1.252094011E1
1.532659050E1,1.123324036E1,-3.342549133E0,4.797673187E0,1.266396429E1
1.533665650E1,1.118040024E1,-3.455564117E0,4.524042206E0,1.254628354E1
1.534672250E1,1.090497299E1,-3.507206726E0,4.160747681E0,1.218731949E1
1.535678950E1,1.054871384E1,-3.548520813E0,3.801195374E0,1.176080141E1
1.536685550E1,1.019484970E1,-3.575913849E0,3.545377350E0,1.137065613E1
1.537692250E1,9.876761169E0,-3.608396301E0,3.392096100E0,1.104885745E1
1.538698850E1,9.598340149E0,-3.673211517E0,3.389252014E0,1.082162861E1
1.539705550E1,9.414073334E0,-3.765120392E0,3.491040344E0,1.072325841E1
1.540712150E1,9.257498932E0,-3.848197632E0,3.713777161E0,1.069121379E1
1.541718850E1,9.109007721E0,-3.957919464E0,3.953728180E0,1.068976682E1
1.542725450E1,8.972940674E0,-4.083508301E0,4.134402466E0,1.069027540E1
1.543732050E1,8.788524170E0,-4.192032623E0,4.226910095E0,1.061499240E1
1.544738750E1,8.552315369E0,-4.311184845E0,4.323159943E0,1.050800289E1
1.545745350E1,8.331225128E0,-4.412673798E0,4.341122589E0,1.037913038E1
1.546752050E1,8.024512939E0,-4.528682556E0,4.288731537E0,1.016341438E1
1.547758650E1,7.736811218E0,-4.632416840E0,4.176315308E0,9.937763488E0
1.548765350E1,7.383845215E0,-4.655019836E0,3.925586700E0,9.570820800E0
1.549771950E1,7.093449097E0,-4.670737152E0,3.627257080E0,9.235247672E0
1.550778550E1,6.877148895E0,-4.655019836E0,3.345692596E0,8.953102566E0
1.551785250E1,6.650669861E0,-4.589456177E0,3.132236481E0,8.666338498E0
1.552791850E1,6.432723083E0,-4.547842712E0,3.020119629E0,8.437056488E0
1.553798550E1,6.304140472E0,-4.507277069E0,2.953957214E0,8.293587698E0
1.554805150E1,6.276897125E0,-4.494553528E0,2.925815735E0,8.255958251E0
1.555811850E1,6.241720276E0,-4.474944305E0,2.890189819E0,8.205936615E0
1.556818450E1,6.221212921E0,-4.474046173E0,2.766696625E0,8.147097003E0
1.557825050E1,6.161187744E0,-4.542304230E0,2.650538177E0,8.100500896E0
1.558831750E1,6.159690857E0,-4.608915710E0,2.589465179E0,8.117217836E0
1.559838350E1,6.019582214E0,-4.582570496E0,2.614313507E0,8.004371149E0
1.560845050E1,5.865702209E0,-4.523293762E0,2.730471954E0,7.894436393E0
1.561851650E1,5.786666565E0,-4.430037689E0,2.823578339E0,7.815583055E0
1.562858350E1,5.739364929E0,-4.264781342E0,2.836301880E0,7.692416918E0
1.563864950E1,5.731132050E0,-4.141288147E0,2.774031372E0,7.595484984E0
1.564871650E1,5.894143066E0,-4.032015381E0,2.699785767E0,7.634586675E0
1.565878250E1,6.070626068E0,-3.924538879E0,2.746638336E0,7.732950823E0
1.566884850E1,6.206543427E0,-3.849544830E0,2.846331024E0,7.838480529E0
1.567891550E1,6.263724518E0,-3.827091522E0,2.996019745E0,7.928241209E0
1.568898150E1,6.406527557E0,-3.796105957E0,3.194956055E0,8.103194430E0
1.569904850E1,6.534511414E0,-3.758833466E0,3.344495087E0,8.247079230E0
1.570911450E1,6.649172974E0,-3.723506927E0,3.400179291E0,8.344892107E0
1.571918150E1,6.865922241E0,-3.823049927E0,3.405568085E0,8.564723752E0
1.572924750E1,7.125632172E0,-3.996539154E0,3.408112793E0,8.852242194E0
1.573931350E1,7.394772491E0,-4.272415466E0,3.422931976E0,9.200687878E0
1.574938050E1,7.792495422E0,-4.578379211E0,3.476670227E0,9.683582859E0
1.575944650E1,8.215066681E0,-4.939578094E0,3.723955994E0,1.028370559E1
1.576951350E1,8.500373383E0,-5.210364990E0,4.123774567E0,1.078933583E1
1.577957950E1,8.428822174E0,-5.354066162E0,4.515210571E0,1.095893217E1
1.578964650E1,8.236172791E0,-5.337600403E0,4.858895874E0,1.095141038E1
1.579971250E1,8.260122986E0,-5.225932617E0,5.150190125E0,1.104827868E1
1.580977950E1,8.636290741E0,-5.160818024E0,5.419629822E0,1.142768340E1
1.581984550E1,9.152267761E0,-5.111271057E0,5.464237061E0,1.182146284E1
1.582991212E1,9.806557159E0,-5.207670593E0,5.226231995E0,1.227199646E1
1.583997912E1,1.051473450E1,-5.466183014E0,5.030888214E0,1.287434016E1
1.585004513E1,1.100301910E1,-5.621410217E0,4.940326538E0,1.330689703E1
1.586011212E1,1.104208786E1,-5.612728271E0,4.831053772E0,1.329546928E1
1.587017812E1,1.086081482E1,-5.585784302E0,4.729265442E0,1.309672617E1
1.588024512E1,1.062475571E1,-5.461243286E0,4.774770813E0,1.286503200E1
1.589031112E1,1.035262161E1,-5.174589386E0,4.755011902E0,1.251252523E1
1.590037712E1,1.005294479E1,-4.733606415E0,4.843927002E0,1.212156580E1
1.591044412E1,9.784253540E0,-4.156406708E0,5.162165222E0,1.181758367E1
1.592051012E1,9.366023254E0,-3.397784271E0,5.468578033E0,1.136541575E1
1.593057713E1,8.837622070E0,-2.596500549E0,5.692512360E0,1.082820742E1
1.594064312E1,8.587192841E0,-2.010768585E0,5.964496765E0,1.064698515E1
1.595071012E1,8.782536621E0,-1.613345032E0,6.340215454E0,1.095144574E1
1.596077613E1,9.139394531E0,-1.687590637E0,6.093827820E0,1.111356073E1
1.597084212E1,9.310788116E0,-1.963916016E0,5.384902039E0,1.093365956E1
1.598090912E1,8.541687469E0,-1.897603912E0,5.351970520E0,1.025694467E1
1.599097512E1,8.010442200E0,-1.862127686E0,5.516179047E0,9.902673125E0
1.600104212E1,8.033344574E0,-1.909129944E0,5.569318542E0,9.959754576E0
1.601110812E1,8.461903381E0,-2.107018433E0,5.388943634E0,1.025105112E1
1.602117512E1,8.793164520E0,-2.358196106E0,5.117408295E0,1.044359607E1
1.603124112E1,8.958271179E0,-2.495310974E0,4.773423615E0,1.045288345E1
1.604130813E1,9.043294373E0,-2.456990662E0,4.477039948E0,1.038565660E1
1.605137412E1,9.218280487E0,-2.235750732E0,4.354893951E0,1.043745073E1
1.606144012E1,9.275162201E0,-1.901495819E0,4.140539703E0,1.033384678E1
1.607150712E1,8.922944641E0,-1.859433289E0,3.860771484E0,9.898585236E0
1.608157312E1,8.612190857E0,-1.915416870E0,3.657943268E0,9.550874415E0
1.609164012E1,8.245154114E0,-1.842518463E0,3.714824982E0,9.229158428E0
1.610170612E1,8.109835510E0,-1.701362000E0,3.910617828E0,9.162805054E0
1.611177312E1,7.739655304E0,-1.873953094E0,4.111949158E0,8.962259219E0
1.612183913E1,7.177574158E0,-2.149080963E0,4.127666473E0,8.554165669E0
1.613190512E1,6.158643036E0,-2.224673767E0,4.165088654E0,7.760542565E0
1.614197212E1,4.935985565E0,-1.828597412E0,3.788920898E0,6.485649048E0
1.615203812E1,5.211861877E0,-1.677262115E0,3.609593811E0,6.557886848E0
1.616210512E1,5.789360962E0,-2.008223877E0,3.825744324E0,7.223986650E0
1.617217112E1,5.904770966E0,-2.066602478E0,3.950435028E0,7.398858214E0
1.618223812E1,5.932762756E0,-1.736987915E0,4.192481689E0,7.469384423E0
1.619230412E1,6.047873383E0,-1.613794098E0,4.396357727E0,7.649121852E0
1.620237013E1,6.107449493E0,-1.713486786E0,4.577780457E0,7.822598685E0
1.621243712E1,6.245013428E0,-1.735341339E0,4.643493805E0,7.973307782E0
1.622250312E1,6.394851837E0,-1.729204102E0,4.535717926E0,8.028512561E0
1.623257012E1,6.457122345E0,-1.724713440E0,4.461322632E0,8.035699413E0
1.624263612E1,6.658303986E0,-1.713935852E0,4.685706024E0,8.320242125E0
1.625270312E1,6.877148895E0,-1.729353790E0,5.071304169E0,8.718025432E0
1.626276912E1,6.847211151E0,-1.742227020E0,5.351970520E0,8.863590919E0
1.627283612E1,7.092550964E0,-1.881287842E0,5.082081757E0,8.925865678E0
1.628290212E1,7.226821747E0,-2.110311584E0,5.067711639E0,9.075355024E0
1.629296812E1,6.844516754E0,-1.876048737E0,4.865033112E0,8.604389324E0
1.630303512E1,6.853049011E0,-1.710792389E0,5.129084015E0,8.729180613E0
1.631310113E1,7.084467773E0,-1.593436432E0,5.636828156E0,9.192527125E0
1.632316812E1,7.153174896E0,-1.162632294E0,5.841452637E0,9.308178869E0
1.633323412E1,7.200177155E0,-6.936575317E-1,5.433550873E0,9.046943512E0
1.634330112E1,7.175179138E0,-2.487826538E-1,4.923262024E0,8.705377501E0
1.635336712E1,7.207511902E0,-1.369651794E-1,5.206173706E0,8.892200624E0
1.636343312E1,7.438930664E0,-4.593946838E-1,5.686225433E0,9.374534259E0
1.637350012E1,7.531438293E0,-8.346643066E-1,6.078709259E0,9.714418847E0
1.638356612E1,7.633376312E0,-1.068029022E0,6.673572235E0,1.019537573E1
1.639363313E1,7.592810669E0,-9.639953613E-1,6.865622864E0,1.028186939E1
1.640369912E1,7.546407166E0,-8.985813904E-1,6.669979706E0,1.011159428E1
1.641376612E1,7.654781799E0,-9.581575012E-1,6.422095184E0,1.003778147E1
1.642383212E1,7.868986359E0,-1.106049957E0,6.269113312E0,1.012156483E1
1.643389812E1,8.091872864E0,-1.240021362E0,6.289920044E0,1.032371801E1
1.644396512E1,8.151299286E0,-1.294957123E0,6.491850128E0,1.050070055E1
1.645403112E1,8.224946136E0,-1.370100861E0,6.887477417E0,1.081500164E1
1.646409812E1,8.468789062E0,-1.457219696E0,7.455546112E0,1.137668868E1
1.647416413E1,8.634494476E0,-1.399439850E0,7.981402588E0,1.184127164E1
1.648423112E1,8.597671051E0,-1.266366577E0,8.253985748E0,1.198548758E1
1.649429712E1,8.671317902E0,-1.248553619E0,8.562344513E0,1.225007689E1
1.650436412E1,8.867410126E0,-1.330433350E0,9.055119781E0,1.274347714E1
1.651443012E1,9.352102203E0,-1.607058105E0,9.615404663E0,1.350927305E1
1.652449612E1,9.577383728E0,-1.803449707E0,1.000594254E1,1.396773410E1
1.653456312E1,9.389374695E0,-1.749112701E0,1.020817200E1,1.397950385E1
1.654462912E1,9.151070251E0,-1.588945770E0,1.037282959E1,1.392344889E1
1.655469613E1,8.487500153E0,-1.260977783E0,1.004950195E1,1.321439417E1
1.656476212E1,7.635621643E0,-9.759704590E-1,9.555229797E0,1.227019367E1
1.657482912E1,7.509134674E0,-7.728428650E-1,9.275012512E0,1.195868917E1
1.658489512E1,6.861132202E0,-6.637197876E-1,9.220226440E0,1.151209080E1
1.659496112E1,6.707401886E0,-6.735992432E-1,9.510772247E0,1.165751967E1
1.660502812E1,6.948700104E0,-5.423222351E-1,1.004740631E1,1.222820184E1
1.661509412E1,6.968159637E0,-1.862127686E-1,1.027792694E1,1.241876428E1
1.662516112E1,6.397097168E0,1.252894592E-1,9.955647125E0,1.183441842E1
1.663522712E1,5.832022247E0,3.020718384E-1,9.366472321E0,1.103786821E1
1.664529412E1,5.438939667E0,3.918850708E-1,8.593928833E0,1.017797875E1
1.665536012E1,5.400469666E0,2.745291138E-1,8.100704498E0,9.739704935E0
1.666542613E1,5.708379364E0,-6.721023560E-2,8.081694031E0,9.894639487E0
1.667549312E1,6.119723969E0,-3.842509460E-1,8.290060730E0,1.031134216E1
1.668555912E1,6.183790741E0,-4.927752686E-1,8.298443298E0,1.036080386E1
1.669562612E1,6.089486847E0,-4.921765137E-1,8.177494812E0,1.020762015E1
1.670569212E1,6.083199921E0,-4.861889648E-1,7.989336090E0,1.005341694E1
1.671575912E1,6.089486847E0,-4.655319214E-1,7.815547485E0,9.918737446E0
1.672582512E1,6.131998444E0,-3.918850708E-1,7.749834137E0,9.890141959E0
1.673589212E1,6.083948364E0,-2.546205139E-1,7.704478455E0,9.820297733E0
1.674595813E1,6.119125214E0,-2.655477905E-1,8.610693970E0,1.056684720E1
1.675602412E1,6.320007477E0,-3.942800903E-1,9.547296295E0,1.145638764E1
1.676609112E1,6.027964783E0,-3.881428528E-1,7.998018036E0,1.002273949E1
1.677615712E1,5.987399139E0,-5.186714172E-1,7.121889954E0,9.318759843E0
1.678622412E1,5.925577698E0,-6.512956238E-1,7.321874084E0,9.441742273E0
1.679629012E1,5.672753448E0,-6.442602539E-1,7.270680542E0,9.244349545E0
1.680635712E1,5.406157837E0,-6.252497864E-1,7.005282440E0,8.870820814E0
1.681642312E1,5.289250946E0,-7.688012695E-1,6.845414886E0,8.684868216E0
1.682648950E1,5.255570984E0,-9.720785522E-1,6.835685120E0,8.677128219E0
1.683655650E1,5.173840942E0,-1.180295563E0,6.872807922E0,8.683157055E0
1.684662250E1,5.159321136E0,-1.309476929E0,7.075187073E0,8.853902898E0
1.685668950E1,5.099445648E0,-1.284179535E0,7.239545288E0,8.947875668E0
1.686675550E1,5.053940277E0,-1.187630310E0,7.206015015E0,8.881409261E0
1.687682250E1,5.046755219E0,-1.150058441E0,7.012766876E0,8.716150063E0
1.688688850E1,5.065166931E0,-1.240021362E0,6.769373016E0,8.545055884E0
1.689695450E1,5.180277557E0,-1.431173859E0,6.462511139E0,8.405211741E0
1.690702150E1,5.295537872E0,-1.620530090E0,6.127807159E0,8.259470910E0
1.691708750E1,5.322332153E0,-1.714534607E0,5.800587616E0,8.056901710E0
1.692715450E1,5.285658417E0,-1.758094025E0,5.662873993E0,7.943375942E0
1.693722050E1,5.329068146E0,-1.735790405E0,5.782175903E0,8.052669980E0
1.694728750E1,5.428012390E0,-1.665736084E0,5.942492523E0,8.218954471E0
1.695735350E1,5.510191498E0,-1.617386627E0,6.229745178E0,8.472772559E0
