"Time (s)","Acceleration x (m/s^2)","Acceleration y (m/s^2)","Acceleration z (m/s^2)","Absolute acceleration (m/s^2)"
1.189124996E-3,-6.357279968E0,1.742825775E0,5.905669098E0,8.850388566E0
1.125612500E-2,-6.117628326E0,2.019749908E0,6.225404205E0,8.958818201E0
2.132212499E-2,-5.842201080E0,2.402953033E0,6.958729248E0,9.398372704E0
3.138812500E-2,-5.499264221E0,2.776426392E0,7.697143707E0,9.858827097E0
4.145412500E-2,-4.990621948E0,2.993325348E0,8.354426880E0,1.018149068E1
5.152012499E-2,-4.592899017E0,3.046165466E0,8.876840515E0,1.044854741E1
6.158712500E-2,-4.448449402E0,3.058140564E0,9.172475739E0,1.064308400E1
7.165312500E-2,-4.402345276E0,3.103196869E0,9.317224731E0,1.076202358E1
8.171912500E-2,-4.390220490E0,3.184777222E0,9.329349518E0,1.079136712E1
9.178512500E-2,-4.496050415E0,3.195405121E0,9.125623169E0,1.066311781E1
1.018511250E-1,-4.631219330E0,3.094963989E0,8.833580475E0,1.044313835E1
1.119171250E-1,-4.787793732E0,2.995420990E0,8.575517120E0,1.026815512E1
1.219841250E-1,-4.924459534E0,2.954705658E0,8.473429413E0,1.023619037E1
1.320501250E-1,-4.944667511E0,2.961591339E0,8.539142761E0,1.030231620E1
1.421161250E-1,-4.772974548E0,3.039579163E0,8.626111908E0,1.031649815E1
1.521821250E-1,-4.528383179E0,3.172502747E0,8.617879028E0,1.023908525E1
1.622481250E-1,-4.224215698E0,3.334765320E0,8.567284241E0,1.011746101E1
1.723141250E-1,-3.952830048E0,3.476370850E0,8.502768402E0,1.000035450E1
1.823811250E-1,-3.755240936E0,3.463647308E0,8.453371124E0,9.877153969E0
1.924471250E-1,-3.644321594E0,3.345243530E0,8.513695679E0,9.846560225E0
2.025131250E-1,-3.685785370E0,3.174448700E0,8.548573151E0,9.835661709E0
2.125791250E-1,-3.837569733E0,3.050356750E0,8.496182098E0,9.809012591E0
2.226451250E-1,-3.929478607E0,2.974464569E0,8.413703613E0,9.750828175E0
2.327121250E-1,-3.963308258E0,2.802621918E0,8.415200500E0,9.714839238E0
2.427781250E-1,-3.823648682E0,2.662363586E0,8.467591553E0,9.664811214E0
2.528441250E-1,-3.530109100E0,2.501747589E0,8.491092682E0,9.529903787E0
2.629101250E-1,-3.222349091E0,2.390379181E0,8.245154114E0,9.169515399E0
2.729761250E-1,-3.044668579E0,2.459834747E0,8.070317688E0,8.969438183E0
2.830421250E-1,-2.748434601E0,2.580334167E0,7.995922394E0,8.840067426E0
2.931091250E-1,-2.328408051E0,2.648143158E0,7.966433716E0,8.711958011E0
3.031751250E-1,-1.902244263E0,2.659818878E0,7.940238190E0,8.587231929E0
3.132411250E-1,-1.856589203E0,2.579735413E0,7.659871216E0,8.293104685E0
3.233071250E-1,-2.095642090E0,2.473157043E0,7.233707428E0,7.926836991E0
3.333731250E-1,-2.191592560E0,2.395468597E0,6.869514771E0,7.598130094E0
3.434401250E-1,-2.118843842E0,2.287543030E0,6.723568268E0,7.411391407E0
3.535061250E-1,-1.845362549E0,2.195334778E0,6.631659393E0,7.225217231E0
3.635721250E-1,-1.530417480E0,2.132166138E0,6.647975464E0,7.147299341E0
3.736381250E-1,-1.292711792E0,1.977537689E0,6.813381500E0,7.211374804E0
3.837041250E-1,-1.089434509E0,1.775757294E0,7.125931549E0,7.424222650E0
3.937701250E-1,-9.050180054E-1,1.694326630E0,7.937843170E0,8.166955033E0
4.038371250E-1,-5.388793945E-1,1.664987640E0,8.498277740E0,8.676594920E0
4.139031250E-1,-1.064286804E-1,1.613794098E0,8.435707855E0,8.589343716E0
4.239691250E-1,9.909393311E-2,1.569635925E0,8.210875397E0,8.360146609E0
4.340351250E-1,8.577163696E-1,1.566342773E0,7.743846588E0,7.947091734E0
4.441011250E-1,7.878117371E-1,1.385219421E0,6.819518738E0,7.003236109E0
4.541681250E-1,1.181044006E-1,1.296603699E0,6.262227631E0,6.396141391E0
4.642340833E-1,2.362088013E-1,1.103355560E0,5.898933105E0,6.005880441E0
4.743000833E-1,4.352947998E-1,7.664062500E-1,6.183042297E0,6.245548187E0
4.843660833E-1,5.569917297E-1,5.062472534E-1,6.747069397E0,6.788922707E0
4.944320833E-1,1.032253418E0,3.162922668E-1,7.155719604E0,7.236705810E0
5.044980833E-1,1.671723633E0,1.739382935E-1,7.532486115E0,7.717723855E0
5.145650833E-1,2.330803070E0,2.574645996E-2,7.349566498E0,7.710345877E0
5.246310833E-1,2.488275604E0,-2.079176331E-1,6.901847534E0,7.339635182E0
5.346970833E-1,2.315085754E0,-2.917433167E-1,6.401288452E0,6.813312708E0
5.447630833E-1,2.217638397E0,-1.809736633E-1,5.841752014E0,6.251138946E0
5.548290833E-1,2.640209656E0,9.954299927E-2,5.263803864E0,5.889672907E0
5.648950833E-1,2.760409698E0,1.953437805E-1,5.207371216E0,5.897010758E0
5.749620833E-1,2.524200897E0,2.025288391E-1,5.558690643E0,6.108326266E0
5.850280833E-1,2.206112366E0,1.375639343E-1,6.455026703E0,6.822992404E0
5.950940833E-1,2.471959534E0,-1.152603149E-1,7.364984436E0,7.769611613E0
6.051600833E-1,3.450923767E0,-5.918692017E-1,7.945776672E0,8.683003566E0
6.152260833E-1,4.345313873E0,-1.048569489E0,8.424630890E0,9.537067487E0
6.252930833E-1,4.856949921E0,-1.229243774E0,8.465046844E0,9.836565502E0
6.353590833E-1,4.991819458E0,-1.275946655E0,8.280480652E0,9.752572030E0
6.454250833E-1,5.311554565E0,-1.199306030E0,8.192613373E0,9.837167312E0
6.554910833E-1,5.912854156E0,-1.077010345E0,8.303832092E0,1.025063037E1
6.655570833E-1,6.567592621E0,-1.191671906E0,8.231382751E0,1.059759486E1
6.756230833E-1,7.219337311E0,-1.560355225E0,8.136629791E0,1.098900742E1
6.856900833E-1,8.469986572E0,-1.364412689E0,8.021968231E0,1.174539352E1
6.957560833E-1,9.651779022E0,-5.117857361E-1,8.139773254E0,1.263624436E1
7.058220833E-1,1.045246399E1,2.269281006E-1,8.613837433E0,1.354635357E1
7.158880833E-1,1.099957626E1,2.553689575E-1,8.779991913E0,1.407636847E1
7.259540833E-1,1.141645935E1,-2.993774414E-4,8.586294708E0,1.428495716E1
7.360210833E-1,1.192450287E1,2.047741699E-1,8.271349640E0,1.451381845E1
7.460870833E-1,1.252385651E1,7.171586609E-1,7.707322540E0,1.472291137E1
7.561530833E-1,1.245589783E1,1.103654938E0,6.818021851E0,1.424264255E1
7.662190833E-1,1.198377960E1,1.115031281E0,5.757926331E0,1.334196327E1
7.762850833E-1,1.161090500E1,8.607101440E-1,4.996010742E0,1.266941436E1
7.863510833E-1,1.114986374E1,3.772155762E-1,4.722679138E0,1.211467916E1
7.964180833E-1,1.056158707E1,-2.600093079E-1,4.806205444E0,1.160665055E1
8.064840833E-1,9.873468018E0,-9.159452820E-1,4.945266266E0,1.108061302E1
8.165500833E-1,9.172176361E0,-1.536554718E0,5.026547241E0,1.057147089E1
8.266160833E-1,8.733738098E0,-2.119891663E0,5.204227753E0,1.038537955E1
8.366820833E-1,8.889414368E0,-2.480192413E0,5.486690369E0,1.073670403E1
8.467490833E-1,9.072783051E0,-2.852019196E0,5.960754547E0,1.122408128E1
8.568150833E-1,9.095535736E0,-3.369942169E0,6.403084717E0,1.162259758E1
8.668810833E-1,9.355245667E0,-3.605851593E0,6.454278259E0,1.192394629E1
8.769470833E-1,9.482630768E0,-3.550766144E0,6.432872772E0,1.199625269E1
8.870130833E-1,9.476044464E0,-3.386856995E0,6.310876465E0,1.187827347E1
8.970790833E-1,9.785001984E0,-3.333567810E0,6.005212097E0,1.195497848E1
9.071460833E-1,1.013482452E1,-3.497926025E0,5.616470490E0,1.210350756E1
9.172120833E-1,1.031055908E1,-3.994593201E0,5.437891846E0,1.232213744E1
9.272780833E-1,1.081785416E1,-4.539759521E0,5.526657257E0,1.296839718E1
9.373440833E-1,1.139535324E1,-4.773722992E0,5.491630096E0,1.352037380E1
9.474100833E-1,1.175610306E1,-4.697980499E0,5.657036133E0,1.386647171E1
9.574770833E-1,1.163275955E1,-4.624333649E0,5.763913879E0,1.378144621E1
9.675430833E-1,1.160267212E1,-4.539609833E0,5.524112549E0,1.362886192E1
9.776090833E-1,1.159593613E1,-4.405638428E0,5.378465424E0,1.352047614E1
9.876750833E-1,1.135254227E1,-4.334087219E0,5.375621338E0,1.328765716E1
9.977410833E-1,1.118548965E1,-4.285288696E0,5.464686127E0,1.316592847E1
1.007807083E0,1.108774292E1,-4.180506592E0,5.815257111E0,1.319969294E1
1.017874083E0,1.089703949E1,-3.941753082E0,6.419700165E0,1.324746909E1
1.027940083E0,1.070229446E1,-3.573069763E0,6.872807922E0,1.321141261E1
1.038006083E0,1.055979080E1,-3.095712433E0,6.629563751E0,1.284693476E1
1.048072083E0,1.026086243E1,-2.587369537E0,6.365662537E0,1.234914727E1
1.058138083E0,9.931098175E0,-2.264640656E0,6.546935577E0,1.210857852E1
1.068205083E0,9.705068207E0,-2.151625671E0,6.400240631E0,1.182289821E1
1.078271083E0,9.644743652E0,-1.906285858E0,5.688171387E0,1.135827010E1
1.088337083E0,9.456435242E0,-1.647324371E0,4.899162140E0,1.077681004E1
1.098403083E0,9.330696716E0,-1.438807983E0,4.276157684E0,1.036424595E1
1.108469083E0,9.341025238E0,-1.330133972E0,3.805386658E0,1.017373955E1
1.118535083E0,9.415869598E0,-1.319655762E0,3.495381317E0,1.013004354E1
1.128602083E0,9.353000336E0,-1.322649536E0,3.324137421E0,1.001388569E1
1.138668083E0,9.188342743E0,-1.259031830E0,3.252885590E0,9.828126381E0
1.148734083E0,8.992400208E0,-1.246907043E0,3.299887848E0,9.659570305E0
1.158800083E0,8.952133942E0,-1.201102295E0,3.382965088E0,9.645092100E0
1.168866083E0,9.404493256E0,-1.317709808E0,3.689527588E0,1.018790785E1
1.178933083E0,1.048539551E1,-1.331481171E0,3.542982330E0,1.114760444E1
1.188999083E0,1.131556915E1,-1.401236115E0,3.276386719E0,1.186340077E1
1.199065083E0,1.085318069E1,-1.366059265E0,3.332070923E0,1.143504900E1
1.209131083E0,9.785750427E0,-1.263073425E0,3.332669678E0,1.041455487E1
1.219197083E0,8.857680359E0,-9.400451660E-1,3.116818542E0,9.436988083E0
1.229263083E0,8.028404846E0,-9.017248535E-1,2.726280670E0,8.526488045E0
1.239330083E0,7.246730347E0,-1.175655212E0,2.568808136E0,7.777920103E0
1.249396083E0,7.004983063E0,-1.285975800E0,2.443368988E0,7.529513495E0
1.259462083E0,7.087461548E0,-1.224304047E0,2.370620270E0,7.573035855E0
1.269528083E0,7.449857941E0,-1.210083618E0,2.420616302E0,7.926163573E0
1.279594083E0,8.185877380E0,-1.459465027E0,2.482288055E0,8.677579192E0
1.289661083E0,8.745862885E0,-1.929786987E0,2.676284637E0,9.347550207E0
1.299727083E0,9.604028320E0,-1.522184601E0,2.776875458E0,1.011263780E1
1.309793083E0,1.036759048E1,-1.528621216E0,2.655028839E0,1.081077210E1
1.319859083E0,1.076561279E1,-1.356030121E0,2.598296814E0,1.115743621E1
1.329925083E0,1.094000015E1,-1.145567780E0,2.473606110E0,1.127451356E1
1.339991083E0,1.098954712E1,-1.157692566E0,2.356399841E0,1.129880605E1
1.350058083E0,1.074390793E1,-1.268761597E0,2.196532288E0,1.103929652E1
1.360124083E0,1.053569092E1,-1.536554718E0,2.100731506E0,1.085241247E1
1.370190083E0,1.050186127E1,-2.044149170E0,2.079775085E0,1.089922476E1
1.380256083E0,1.072145462E1,-2.587070160E0,2.169288940E0,1.124047756E1
1.390322083E0,1.100421661E1,-3.062631226E0,2.299069061E0,1.165153260E1
1.400389083E0,1.139235947E1,-3.494932251E0,2.413281555E0,1.215830307E1
1.410455083E0,1.174787018E1,-3.927832031E0,2.632575531E0,1.266375821E1
1.420521083E0,1.207254501E1,-4.240082703E0,2.728675690E0,1.308320738E1
1.430587083E0,1.235770203E1,-4.355941772E0,2.661166077E0,1.337044625E1
1.440653083E0,1.248104553E1,-4.418511658E0,2.483335876E0,1.347095765E1
1.450719083E0,1.248209335E1,-4.379293213E0,2.245181122E0,1.341721662E1
1.460786708E0,1.237117401E1,-4.274660797E0,1.969005432E0,1.323614951E1
1.470852708E0,1.195099777E1,-4.105811920E0,1.980830841E0,1.279092374E1
1.480918708E0,1.172481812E1,-3.864962769E0,1.915416870E0,1.249312286E1
1.490984708E0,1.150582352E1,-3.616778870E0,1.891316986E0,1.220828178E1
1.501050708E0,1.134969818E1,-3.442092133E0,1.964814148E0,1.202181940E1
1.511117708E0,1.129146927E1,-3.417842560E0,2.114053802E0,1.198533060E1
1.521183708E0,1.106154739E1,-3.421285400E0,2.355950775E0,1.181581688E1
1.531249708E0,1.081156723E1,-3.372636566E0,2.541564789E0,1.160707607E1
1.541315708E0,1.063882645E1,-3.333418121E0,2.702480164E0,1.147169140E1
1.551381708E0,1.060529617E1,-3.268153839E0,2.790946198E0,1.144301172E1
1.561447708E0,1.061891785E1,-3.219804382E0,2.810256042E0,1.144666307E1
1.571514708E0,1.064451462E1,-3.194656677E0,2.739453278E0,1.144622763E1
1.581580708E0,1.071546707E1,-3.246299286E0,2.652184753E0,1.150624950E1
1.591646708E0,1.078926361E1,-3.406915283E0,2.553689575E0,1.159899183E1
1.601712708E0,1.087204147E1,-3.631747742E0,2.478096771E0,1.172739703E1
1.611778708E0,1.090931396E1,-3.859723663E0,2.482587433E0,1.183527939E1
1.621845708E0,1.076935501E1,-4.039200439E0,2.533780975E0,1.177769899E1
1.631911708E0,1.057580750E1,-4.109105072E0,2.621348877E0,1.164490956E1
1.641977708E0,1.036848862E1,-4.117188263E0,2.620750122E0,1.145971756E1
1.652043708E0,1.014635056E1,-4.049528961E0,2.576741638E0,1.122438024E1
1.662109708E0,9.710007935E0,-3.944597168E0,2.578388214E0,1.079315462E1
1.672175708E0,8.496481476E0,-4.312232666E0,2.552192688E0,9.864037487E0
1.682242708E0,8.090226288E0,-4.314927063E0,2.656376038E0,9.546030096E0
1.692308708E0,9.303902435E0,-3.132535858E0,3.197351074E0,1.032465183E1
1.702374708E0,8.821755066E0,-3.864962769E0,3.207829285E0,1.015142691E1
1.712440708E0,9.181157684E0,-3.973786469E0,2.816992035E0,1.039327087E1
1.722506708E0,1.037238052E1,-2.798879700E0,2.754571838E0,1.109088235E1
1.732573708E0,9.631121979E0,-3.556604004E0,2.490221558E0,1.056452299E1
1.742639708E0,9.806257782E0,-3.537593536E0,2.598446503E0,1.074379746E1
1.752705708E0,9.581724701E0,-3.477867737E0,2.559228058E0,1.050974122E1
1.762771708E0,9.173523560E0,-3.492686920E0,2.305954742E0,1.008314553E1
1.772837708E0,8.879235535E0,-3.163820801E0,2.100731506E0,9.657311148E0
1.782903708E0,8.509504395E0,-2.939437408E0,1.939816132E0,9.209497486E0
1.792970708E0,8.271199951E0,-2.736010437E0,1.836381226E0,8.903414949E0
1.803036708E0,8.060288544E0,-2.636916504E0,1.833088074E0,8.676508050E0
1.813102708E0,7.873776398E0,-2.624192963E0,1.856888580E0,8.504750359E0
1.823168708E0,7.702532501E0,-2.588567047E0,1.830393677E0,8.329467408E0
1.833234708E0,7.496411133E0,-2.594554596E0,1.739532623E0,8.121198629E0
1.843301708E0,7.299720154E0,-2.614163818E0,1.601819000E0,7.917423249E0
1.853367708E0,7.149133301E0,-2.650687866E0,1.473535767E0,7.765794278E0
1.863433708E0,7.044201508E0,-2.689307556E0,1.385369110E0,7.666315776E0
1.873499708E0,6.919959869E0,-2.715503082E0,1.339564362E0,7.553425333E0
1.883565708E0,6.766229553E0,-2.758314056E0,1.323547668E0,7.425761727E0
1.893631708E0,6.639143829E0,-2.745590515E0,1.356778564E0,7.311453080E0
1.903698708E0,6.591542816E0,-2.769989777E0,1.378932495E0,7.281671160E0
1.913764708E0,6.576573944E0,-2.776576080E0,1.462608490E0,7.286969409E0
1.923830708E0,6.621181183E0,-2.795436859E0,1.550176392E0,7.352384262E0
1.933896708E0,6.771169281E0,-2.828518066E0,1.604812775E0,7.511635769E0
1.943962708E0,6.938820648E0,-2.848127289E0,1.699116669E0,7.690647469E0
1.954029708E0,6.998546448E0,-2.845432892E0,1.753453674E0,7.755690847E0
1.964095708E0,7.032226410E0,-2.787203979E0,1.783092041E0,7.771752153E0
1.974161708E0,7.120542755E0,-2.683769073E0,1.793121185E0,7.817929979E0
1.984227708E0,7.218888245E0,-2.596650238E0,1.832339630E0,7.887484293E0
1.994293708E0,7.341932373E0,-2.509830780E0,1.910926208E0,7.990923632E0
2.004360708E0,7.456593933E0,-2.477198639E0,2.023641815E0,8.113718776E0
2.014426708E0,7.642657013E0,-2.490071869E0,2.160157928E0,8.323277384E0
2.024492708E0,7.924221497E0,-2.559078369E0,2.314037933E0,8.642739148E0
2.034558708E0,8.409961395E0,-2.709515533E0,2.390229492E0,9.153257460E0
2.044624708E0,9.060358887E0,-2.949765930E0,2.357297974E0,9.815705575E0
2.054690708E0,9.753866730E0,-3.296744385E0,2.266287231E0,1.054241422E1
2.064757708E0,1.043809387E1,-3.525169373E0,2.121388550E0,1.121966631E1
2.074823708E0,1.100227066E1,-3.612737274E0,1.911674652E0,1.173696427E1
2.084889708E0,1.133293304E1,-3.563639374E0,1.648372192E0,1.199383291E1
2.094955708E0,1.140957367E1,-3.473526764E0,1.404828644E0,1.200905088E1
2.105021708E0,1.141541153E1,-3.558100891E0,1.212029572E0,1.201834922E1
2.115087708E0,1.126572281E1,-3.808979187E0,1.202599182E0,1.195286901E1
2.125154708E0,1.101379669E1,-4.022584991E0,1.333427124E0,1.180097180E1
2.135220708E0,1.085063599E1,-4.346661072E0,1.471889191E0,1.178118082E1
2.145286708E0,1.076246933E1,-4.739743652E0,1.697021027E0,1.188174214E1
2.155352708E0,1.100301910E1,-5.102738800E0,2.108515320E0,1.231057308E1
2.165418708E0,1.149324966E1,-5.368885345E0,2.426154785E0,1.291533758E1
2.175485708E0,1.192270660E1,-5.494923248E0,2.632575531E0,1.338938267E1
2.185551708E0,1.205757614E1,-5.378615112E0,2.735860748E0,1.348330735E1
2.195617708E0,1.183947968E1,-5.278623047E0,2.715952148E0,1.324437754E1
2.205683708E0,1.101065323E1,-4.805457001E0,2.669848022E0,1.230670508E1
2.215749708E0,1.001821701E1,-3.981570282E0,2.566263428E0,1.108166422E1
2.225816708E0,9.177265778E0,-3.083587646E0,2.410736847E0,9.977092366E0
2.235882708E0,8.528365173E0,-2.274370422E0,2.379302216E0,9.141490709E0
2.245948708E0,8.309520264E0,-1.652713165E0,2.448458405E0,8.818987265E0
2.256014708E0,8.589887238E0,-1.324595490E0,2.464924164E0,9.034188790E0
2.266080708E0,9.063951416E0,-1.269060974E0,2.473456421E0,9.480702384E0
2.276146708E0,9.673932953E0,-1.369801483E0,2.508184204E0,1.008723564E1
2.286213708E0,1.035142410E1,-1.451082458E0,2.578986969E0,1.076609470E1
2.296279708E0,1.099463654E1,-1.494192810E0,2.609074402E0,1.139832944E1
2.306345708E0,1.143771515E1,-1.567091217E0,2.633623352E0,1.184116019E1
2.316411708E0,1.174487640E1,-1.571581879E0,2.624192963E0,1.213665440E1
2.326477708E0,1.191103088E1,-1.535506897E0,2.492766266E0,1.226557466E1
2.336544708E0,1.189202042E1,-1.487157440E0,2.340532837E0,1.221105568E1
2.346610708E0,1.174981613E1,-1.432521057E0,2.201771393E0,1.203985436E1
2.356676708E0,1.146825165E1,-1.392105103E0,2.103725281E0,1.174241936E1
2.366742708E0,1.103325623E1,-1.330732727E0,2.061363373E0,1.130277893E1
2.376808708E0,1.047521667E1,-1.273252258E0,2.092798004E0,1.075784082E1
2.386874708E0,9.956245880E0,-1.206341400E0,2.135159912E0,1.025382853E1
2.396941708E0,9.482780457E0,-1.118773499E0,2.165546722E0,9.791035284E0
2.407007708E0,9.061107330E0,-1.057251434E0,2.191742249E0,9.382173561E0
2.417073708E0,8.708440704E0,-1.014739838E0,2.196831665E0,9.038401728E0
2.427139708E0,8.392447815E0,-1.021924896E0,2.187550964E0,8.732862649E0
2.437205708E0,8.227341156E0,-1.017583923E0,2.170486450E0,8.569459199E0
2.447272708E0,8.269553375E0,-1.095272369E0,2.124681702E0,8.608101238E0
2.457338208E0,8.269703064E0,-1.162781982E0,2.110012207E0,8.613489549E0
2.467404208E0,8.214767303E0,-1.200353851E0,2.048490143E0,8.550997783E0
2.477470208E0,8.247698822E0,-1.253643036E0,1.974693604E0,8.572955823E0
2.487536208E0,8.311166840E0,-1.335822144E0,1.898502045E0,8.629265615E0
2.497602208E0,8.368198242E0,-1.468895416E0,1.801354065E0,8.685002708E0
2.507669208E0,8.362360382E0,-1.567689972E0,1.706601105E0,8.677511760E0
2.517735208E0,8.323890381E0,-1.620530090E0,1.633702698E0,8.636101745E0
2.527801208E0,8.258775787E0,-1.651964722E0,1.574425964E0,8.568265989E0
2.537867208E0,8.191715240E0,-1.667532349E0,1.532962189E0,8.499107941E0
2.547933208E0,8.164022827E0,-1.670526123E0,1.544937286E0,8.475184804E0
2.558000208E0,8.165519714E0,-1.685644684E0,1.643133087E0,8.498058399E0
2.568066208E0,8.190517731E0,-1.701212311E0,1.797462158E0,8.556259360E0
2.578132208E0,8.330776062E0,-1.694476318E0,2.013013916E0,8.736435475E0
2.588198208E0,8.568182373E0,-1.702709198E0,2.208507385E0,9.010575601E0
2.598264208E0,8.776998138E0,-1.760189667E0,2.392624512E0,9.265992448E0
2.608330208E0,8.836873627E0,-1.793719940E0,2.547402649E0,9.370006776E0
2.618397208E0,8.804540863E0,-1.736389160E0,2.632126465E0,9.352169633E0
2.628463208E0,8.755442963E0,-1.665586395E0,2.705773315E0,9.314138111E0
2.638529208E0,8.730295258E0,-1.593586121E0,2.716101837E0,9.280882566E0
2.648595208E0,8.702902222E0,-1.506317596E0,2.725382538E0,9.243225073E0
2.658661208E0,8.699160004E0,-1.465452576E0,2.708916779E0,9.228280779E0
2.668728208E0,8.830586700E0,-1.451232147E0,2.695295105E0,9.346119618E0
2.678794208E0,9.040001221E0,-1.485361176E0,2.642604675E0,9.534740655E0
2.688860208E0,9.182055817E0,-1.521735535E0,2.611020355E0,9.666605162E0
2.698926208E0,9.289532318E0,-1.576222229E0,2.537523193E0,9.758017789E0
2.708992208E0,9.432784424E0,-1.672023010E0,2.431393890E0,9.883560046E0
2.719058208E0,9.621691589E0,-1.889969788E0,2.355052643E0,1.008440419E1
2.729125208E0,9.838440857E0,-2.179318085E0,2.309098206E0,1.033809849E1
2.739191208E0,9.978998566E0,-2.468965759E0,2.316882019E0,1.053774865E1
2.749257208E0,1.001686981E1,-2.703677673E0,2.357148285E0,1.063972283E1
2.759323208E0,1.009635452E1,-2.881358185E0,2.384241943E0,1.076676410E1
2.769389208E0,1.018167709E1,-3.068768463E0,2.436183929E0,1.090957746E1
2.779456208E0,1.026520340E1,-3.243455200E0,2.532733154E0,1.105934626E1
2.789522208E0,1.025397675E1,-3.354374542E0,2.640958099E0,1.110722861E1
2.799588208E0,1.024559418E1,-3.389102325E0,2.767594757E0,1.114081664E1
2.809654208E0,1.033406021E1,-3.340004425E0,2.914140015E0,1.124458279E1
2.819720208E0,1.054197784E1,-3.312761078E0,3.061733093E0,1.146655538E1
2.829786208E0,1.080034058E1,-3.400927734E0,3.193608856E0,1.176489709E1
2.839853208E0,1.111798004E1,-3.566483459E0,3.333867188E0,1.214265024E1
2.849919208E0,1.141151962E1,-3.765120392E0,3.473077698E0,1.250844436E1
2.859985208E0,1.153800659E1,-3.908222809E0,3.586691437E0,1.269898252E1
2.870051208E0,1.145013931E1,-3.921994171E0,3.661685486E0,1.264498593E1
2.880117208E0,1.124746078E1,-3.856131134E0,3.709436188E0,1.245532168E1
2.890183208E0,1.103969284E1,-3.779490509E0,3.781436462E0,1.226615784E1
2.900250208E0,1.078701828E1,-3.663182373E0,3.848946075E0,1.202468521E1
2.910316208E0,1.042566971E1,-3.442541199E0,3.891906738E0,1.164871739E1
2.920382208E0,1.013602203E1,-3.167413330E0,3.958368530E0,1.133314305E1
2.930448208E0,9.992620239E0,-2.922223206E0,4.022584991E0,1.116122922E1
2.940514208E0,9.951156464E0,-2.668201447E0,4.036506042E0,1.106517939E1
2.950581208E0,9.937534790E0,-2.418670349E0,4.014950867E0,1.098746533E1
2.960647208E0,9.930948486E0,-2.277064819E0,3.992647247E0,1.094303404E1
2.970713208E0,9.980196075E0,-2.253563690E0,3.959566040E0,1.097091729E1
2.980779208E0,1.007225464E1,-2.343825989E0,3.898942108E0,1.105194930E1
2.990845208E0,1.024768982E1,-2.590962067E0,3.814218292E0,1.123728135E1
3.000912208E0,1.042746597E1,-2.878963165E0,3.630250854E0,1.141048626E1
3.010978208E0,1.053075119E1,-3.216810608E0,3.364852753E0,1.151376677E1
3.021044208E0,1.040561142E1,-3.468137970E0,3.111729126E0,1.140120994E1
3.031110208E0,1.014949402E1,-3.565285950E0,2.918031921E0,1.114622820E1
3.041176208E0,9.818083191E0,-3.581901398E0,2.702779541E0,1.079489659E1
3.051242208E0,9.479636993E0,-3.514242096E0,2.502645721E0,1.041521246E1
3.061309208E0,9.238488464E0,-3.416495361E0,2.302661591E0,1.011555041E1
3.071375208E0,9.034313049E0,-3.321443024E0,2.183808746E0,9.870147753E0
3.081441208E0,8.854836273E0,-3.191812592E0,2.143841858E0,9.653592645E0
3.091507208E0,8.789122925E0,-3.029849396E0,2.229912872E0,9.560396465E0
3.101573208E0,8.821755066E0,-2.869981842E0,2.446512451E0,9.594038847E0
3.111640208E0,8.861871643E0,-2.758763123E0,2.671943665E0,9.658303471E0
3.121706208E0,8.831784210E0,-2.694696350E0,2.866988068E0,9.668579075E0
3.131772208E0,8.789122925E0,-2.647394714E0,2.998564453E0,9.656540237E0
3.141838208E0,8.676107941E0,-2.607128448E0,3.034340057E0,9.554014200E0
3.151904208E0,8.504414978E0,-2.640808411E0,3.045866089E0,9.411495280E0
3.161970208E0,8.302634583E0,-2.689008179E0,3.033741302E0,9.239485499E0
3.172037208E0,8.193661194E0,-2.779719543E0,3.069217529E0,9.180578454E0
3.182103208E0,8.219707031E0,-2.893782349E0,3.136278076E0,9.261414586E0
3.192169208E0,8.249195709E0,-3.065175934E0,3.149450684E0,9.346848290E0
3.202235208E0,8.218210144E0,-3.216960297E0,3.117716675E0,9.359912862E0
3.212301208E0,8.122409363E0,-3.364852753E0,3.113076324E0,9.326682803E0
3.222368208E0,7.942483521E0,-3.391946411E0,3.082988892E0,9.170232573E0
3.232434208E0,7.749385071E0,-3.383264465E0,2.988535309E0,8.968321510E0
3.242500208E0,7.603438568E0,-3.377875671E0,2.910996552E0,8.814546105E0
3.252566208E0,7.519463196E0,-3.335813141E0,2.800675964E0,8.689865472E0
3.262632208E0,7.547305298E0,-3.312461700E0,2.700683899E0,8.673402637E0
3.272698208E0,7.669600983E0,-3.320395203E0,2.612517242E0,8.756314857E0
3.282765208E0,7.791597290E0,-3.342998199E0,2.558180237E0,8.856009904E0
3.292831208E0,7.817643127E0,-3.291954346E0,2.481090546E0,8.837891025E0
3.302897208E0,7.754773865E0,-3.165167999E0,2.412084045E0,8.716246646E0
3.312963208E0,7.616461487E0,-3.009342041E0,2.327659607E0,8.513790246E0
3.323029208E0,7.497009888E0,-2.850671997E0,2.306553497E0,8.345758032E0
3.333096208E0,7.464228058E0,-2.680026855E0,2.327809296E0,8.265345762E0
3.343162208E0,7.526049500E0,-2.577639771E0,2.392774200E0,8.307286936E0
3.353228208E0,7.692503357E0,-2.568209381E0,2.515069885E0,8.490929504E0
3.363294208E0,7.849526825E0,-2.604284363E0,2.637964325E0,8.680796288E0
3.373360208E0,8.031997375E0,-2.666255493E0,2.726130981E0,8.891214221E0
3.383426208E0,8.139773254E0,-2.772384796E0,2.829565887E0,9.052539379E0
3.393493208E0,8.255332947E0,-2.890339508E0,2.850222931E0,9.199367114E0
3.403559208E0,8.381370850E0,-3.012635193E0,2.872376862E0,9.358092592E0
3.413625208E0,8.605604553E0,-3.191513214E0,2.834056549E0,9.605938936E0
3.423691208E0,8.968150635E0,-3.457360382E0,2.756517792E0,9.998972795E0
3.433757208E0,9.493408356E0,-3.761827240E0,2.640808411E0,1.054751229E1
3.443824208E0,1.012674133E1,-4.097129974E0,2.570454712E0,1.122250424E1
3.453890208E0,1.075708054E1,-4.412673798E0,2.496807861E0,1.189203604E1
3.463956333E0,1.125793900E1,-4.649631042E0,2.352208557E0,1.240536756E1
3.474022333E0,1.160297150E1,-4.775070190E0,2.225871277E0,1.274302734E1
3.484088333E0,1.173155411E1,-4.807103577E0,2.120939484E0,1.285441523E1
3.494154333E0,1.163216080E1,-4.822820892E0,2.053130493E0,1.275860929E1
3.504221333E0,1.139550293E1,-4.788093109E0,2.114802246E0,1.254016392E1
3.514287333E0,1.132410141E1,-4.753215637E0,2.270777893E0,1.248938605E1
3.524353333E0,1.143966110E1,-4.818030853E0,2.425106964E0,1.264754566E1
3.534419333E0,1.146271317E1,-4.919968872E0,2.503693542E0,1.272275002E1
3.544485333E0,1.124237137E1,-4.965923309E0,2.444267120E0,1.253099158E1
3.554552333E0,1.070992859E1,-4.843028870E0,2.275717621E0,1.197231764E1
3.564618333E0,9.874066772E0,-4.503235474E0,2.029629364E0,1.104063946E1
3.574684333E0,8.898395691E0,-3.986510010E0,1.769919434E0,9.909910329E0
3.584750333E0,7.974067841E0,-3.327879639E0,1.491648102E0,8.768440846E0
3.594816333E0,7.334298248E0,-2.698737946E0,1.281485138E0,7.919426839E0
3.604882333E0,7.042255554E0,-2.209405518E0,1.213975525E0,7.479877847E0
3.614949333E0,7.175029449E0,-1.922452240E0,1.261127472E0,7.534408584E0
3.625015333E0,7.605534210E0,-1.857038269E0,1.304537201E0,7.936911179E0
3.635081333E0,8.090375977E0,-1.986968079E0,1.329535217E0,8.436224836E0
3.645147333E0,8.518934784E0,-2.204016724E0,1.338366852E0,8.900627248E0
3.655213333E0,8.888965302E0,-2.445764008E0,1.364712067E0,9.319758835E0
3.665280333E0,9.209598541E0,-2.741848297E0,1.420545959E0,9.713515749E0
3.675346333E0,9.421557770E0,-2.973117371E0,1.446891174E0,9.984922222E0
3.685412333E0,9.589059448E0,-3.172951813E0,1.508712616E0,1.021243840E1
3.695478333E0,9.632469177E0,-3.307372284E0,1.599423981E0,1.030928373E1
3.705544333E0,9.631720734E0,-3.341501312E0,1.731599121E0,1.034089507E1
3.715611333E0,9.562115479E0,-3.292553101E0,1.874851227E0,1.028542782E1
3.725677333E0,9.497449951E0,-3.139571228E0,2.008223877E0,1.020252058E1
3.735743333E0,9.481433258E0,-2.849175110E0,2.154469757E0,1.013198477E1
3.745809333E0,9.469308472E0,-2.486329651E0,2.209854584E0,1.003658783E1
3.755875333E0,9.416318665E0,-2.111658783E0,2.179767151E0,9.893308084E0
3.765941333E0,9.382189636E0,-1.754351807E0,2.041005707E0,9.760580768E0
3.776008333E0,9.344019012E0,-1.465901642E0,1.884131927E0,9.644143925E0
3.786074333E0,9.330996094E0,-1.265019379E0,1.727856903E0,9.573570473E0
3.796140333E0,9.382638702E0,-1.132694550E0,1.616638184E0,9.588035512E0
3.806206333E0,9.440568237E0,-1.088087311E0,1.510658569E0,9.622388059E0
3.816272333E0,9.599387970E0,-1.122366028E0,1.376537476E0,9.762315828E0
3.826338333E0,9.729467468E0,-1.232536926E0,1.222058716E0,9.883071992E0
3.836405333E0,9.715845795E0,-1.388811951E0,1.058898010E0,9.871561332E0
3.846471333E0,9.545050964E0,-1.506916351E0,8.840615845E-1,9.703626110E0
3.856537333E0,9.351952515E0,-1.596579895E0,7.598199463E-1,9.517636763E0
3.866603333E0,9.167685699E0,-1.665436707E0,6.855743408E-1,9.342919923E0
3.876669333E0,8.953331451E0,-1.717378693E0,6.532415771E-1,9.139926598E0
3.886736333E0,8.814120941E0,-1.761985931E0,6.541397095E-1,9.012281684E0
3.896802333E0,8.711733856E0,-1.747017059E0,6.950047302E-1,8.912317710E0
3.906868333E0,8.632997589E0,-1.659000092E0,7.497908020E-1,8.822874527E0
3.916934333E0,8.592431946E0,-1.500629425E0,8.325686646E-1,8.762131361E0
3.927000333E0,8.533604279E0,-1.337169342E0,9.220825195E-1,8.686809541E0
3.937067333E0,8.450377350E0,-1.248703308E0,9.900411987E-1,8.599320838E0
3.947133333E0,8.355474701E0,-1.206042023E0,1.049916687E0,8.507104084E0
3.957199333E0,8.331225128E0,-1.256936188E0,1.080153809E0,8.494464843E0
3.967265333E0,8.387358398E0,-1.367705841E0,1.093476105E0,8.568202271E0
3.977331333E0,8.402476959E0,-1.483415222E0,1.051114197E0,8.596916937E0
3.987397333E0,8.383765869E0,-1.582509155E0,9.849517822E-1,8.588480389E0
3.997464333E0,8.380622406E0,-1.639241180E0,9.401948547E-1,8.591036604E0
4.007530333E0,8.372688904E0,-1.680555267E0,9.389973450E-1,8.591152513E0
4.017596333E0,8.442443848E0,-1.722318420E0,9.752220154E-1,8.671349194E0
4.027662333E0,8.534352722E0,-1.765578461E0,1.020428009E0,8.774606373E0
4.037728333E0,8.699609070E0,-1.816322937E0,1.172212372E0,8.964168050E0
4.047795333E0,8.850495300E0,-1.809287567E0,1.413211212E0,9.143410441E0
4.057861333E0,8.961264954E0,-1.717528381E0,1.625020752E0,9.267948303E0
4.067927333E0,8.948990479E0,-1.605112152E0,1.858235779E0,9.279755159E0
4.077993333E0,9.029972076E0,-1.544188843E0,1.967059479E0,9.369857943E0
4.088059333E0,9.188342743E0,-1.489552460E0,2.074685669E0,9.536704332E0
4.098125333E0,9.475595398E0,-1.526076508E0,2.136357422E0,9.832590741E0
4.108192333E0,9.964478760E0,-1.696571960E0,2.153721313E0,1.033478151E1
4.118258333E0,1.057460999E1,-1.950444031E0,2.210603027E0,1.097785835E1
4.128324333E0,1.103580093E1,-2.253863068E0,2.273771667E0,1.149081540E1
4.138390333E0,1.131137787E1,-2.526595917E0,2.282902679E0,1.181281511E1
4.148456333E0,1.138727005E1,-2.702031097E0,2.316432953E0,1.193049676E1
4.158523333E0,1.129326553E1,-2.791694641E0,2.378553772E0,1.187387567E1
4.168589333E0,1.112441666E1,-2.823728027E0,2.455942841E0,1.173702437E1
4.178655333E0,1.105376358E1,-2.931503906E0,2.556084595E0,1.171806182E1
4.188721333E0,1.123533600E1,-3.176694031E0,2.695744171E0,1.198295442E1
4.198787333E0,1.164548309E1,-3.573518829E0,2.900817719E0,1.252206280E1
4.208853333E0,1.197958832E1,-3.862118683E0,3.131488037E0,1.297045544E1
4.218920333E0,1.207374252E1,-3.888613586E0,3.382066956E0,1.312764073E1
4.228986333E0,1.205458237E1,-3.733236694E0,3.576811981E0,1.311653903E1
4.239052333E0,1.200653229E1,-3.502416687E0,3.812571716E0,1.307514602E1
4.249118333E0,1.168530029E1,-3.153641968E0,3.999083862E0,1.274693580E1
4.259184333E0,1.126018433E1,-2.695893860E0,4.079017639E0,1.227591054E1
4.269251333E0,1.087159241E1,-2.198627930E0,4.022884369E0,1.179868996E1
4.279317333E0,1.064421524E1,-1.757046204E0,3.976480865E0,1.149777933E1
4.289383333E0,1.057236465E1,-1.419198761E0,4.000730438E0,1.139275487E1
4.299449333E0,1.068912186E1,-1.335373077E0,4.056115265E0,1.151054379E1
4.309515333E0,1.108055786E1,-1.524429932E0,4.023932190E0,1.188674385E1
4.319581333E0,1.158680511E1,-1.920506287E0,3.977828064E0,1.240022231E1
4.329648333E0,1.204096069E1,-2.494861908E0,3.935017090E0,1.291098098E1
4.339714333E0,1.220726486E1,-3.134032745E0,3.775598602E0,1.315654291E1
4.349780333E0,1.219379288E1,-3.680546265E0,3.603456573E0,1.323706557E1
4.359846333E0,1.199605408E1,-4.083358612E0,3.473227386E0,1.313934699E1
4.369912333E0,1.152318741E1,-4.322261810E0,3.323089600E0,1.274789079E1
4.379979333E0,1.092039093E1,-4.374802551E0,3.203039246E0,1.219234579E1
4.390045333E0,1.038480469E1,-4.274062042E0,3.110232239E0,1.165269580E1
4.400111333E0,9.947713623E0,-4.082460480E0,2.973566437E0,1.115641462E1
4.410177333E0,9.654323730E0,-3.881129150E0,2.843187561E0,1.078669763E1
4.420243333E0,9.499096527E0,-3.661984863E0,2.770887909E0,1.055086668E1
4.430310333E0,9.441765747E0,-3.441792755E0,2.748135223E0,1.041849917E1
4.440376333E0,9.376052399E0,-3.176544342E0,2.811752930E0,1.029110038E1
4.450442333E0,9.234147491E0,-2.919828186E0,2.868035889E0,1.010052010E1
4.460508583E0,9.038204956E0,-2.739004211E0,2.952160950E0,9.894773730E0
4.470574583E0,8.870403900E0,-2.652783508E0,3.042123871E0,9.745555055E0
4.480640583E0,8.668324127E0,-2.661764832E0,3.050057373E0,9.567010253E0
4.490707583E0,8.479866028E0,-2.745740204E0,3.017874298E0,9.410355062E0
4.500773583E0,8.254883881E0,-2.870879974E0,3.012186127E0,9.244367202E0
4.510839583E0,8.015531616E0,-2.974763947E0,2.957699432E0,9.046875348E0
4.520905583E0,7.798183594E0,-3.037333832E0,2.844684448E0,8.839077654E0
4.530971583E0,7.613767090E0,-3.053949280E0,2.737207947E0,8.648026529E0
4.541038583E0,7.462581482E0,-3.080294495E0,2.636317749E0,8.492850394E0
4.551104583E0,7.346722412E0,-3.090473328E0,2.523302765E0,8.360168206E0
4.561170583E0,7.297325134E0,-3.097808075E0,2.446961517E0,8.296685462E0
4.571236583E0,7.310497742E0,-3.103645935E0,2.396666107E0,8.295782287E0
4.581302583E0,7.378606110E0,-3.112028503E0,2.364782410E0,8.349894932E0
4.591368583E0,7.425907745E0,-3.146157532E0,2.384241943E0,8.409935951E0
4.601435583E0,7.421117706E0,-3.198997650E0,2.391427002E0,8.427662611E0
4.611501583E0,7.346273346E0,-3.243006134E0,2.404749298E0,8.382579558E0
4.621567583E0,7.167245636E0,-3.222498779E0,2.422562256E0,8.223303246E0
4.631633583E0,6.925947418E0,-3.136128387E0,2.411634979E0,7.976216658E0
4.641699583E0,6.715335388E0,-3.023562469E0,2.388582916E0,7.742285692E0
4.651766583E0,6.626420288E0,-2.947969666E0,2.341730347E0,7.621264462E0
4.661832583E0,6.614744568E0,-2.903512115E0,2.268831940E0,7.571844338E0
4.671898583E0,6.646628265E0,-2.897674255E0,2.183659058E0,7.572486399E0
4.681964583E0,6.699169006E0,-2.916834412E0,2.123035126E0,7.608815053E0
4.692030583E0,6.768774261E0,-2.920876007E0,2.044149170E0,7.650252772E0
4.702096583E0,6.878346405E0,-2.951412506E0,1.971250763E0,7.740046164E0
4.712163583E0,7.002288666E0,-3.020718384E0,1.925296326E0,7.865338648E0
4.722229583E0,7.118297424E0,-3.101550293E0,1.857637024E0,7.983770272E0
4.732295583E0,7.304061127E0,-3.249891815E0,1.835782471E0,8.202511995E0
4.742361583E0,7.553143158E0,-3.386557617E0,1.845362549E0,8.480808157E0
4.752427583E0,7.854466553E0,-3.517834625E0,1.879341888E0,8.809070962E0
4.762494583E0,8.175249481E0,-3.612437897E0,1.927242279E0,9.143231072E0
4.772560583E0,8.538843384E0,-3.710933075E0,2.004331970E0,9.523666167E0
4.782626583E0,8.833281097E0,-3.761228485E0,2.058070221E0,9.818826187E0
4.792692583E0,9.124425659E0,-3.748504944E0,2.069895630E0,1.007923116E1
4.802758583E0,9.472002869E0,-3.708388367E0,2.120789795E0,1.039080035E1
4.812825583E0,9.746232605E0,-3.647315369E0,2.221829681E0,1.064088749E1
4.822891583E0,1.002285736E1,-3.604654083E0,2.381098480E0,1.091424898E1
4.832957583E0,1.039677979E1,-3.614533539E0,2.549049225E0,1.129847488E1
4.843023583E0,1.100481537E1,-3.733985138E0,2.694846039E0,1.192940910E1
4.853089583E0,1.159339142E1,-3.941603394E0,2.806214447E0,1.256255553E1
4.863155583E0,1.197973801E1,-4.170028381E0,2.791844330E0,1.298836611E1
4.873222583E0,1.219558914E1,-4.296215973E0,2.628533936E0,1.319466016E1
4.883288583E0,1.221474930E1,-4.333189087E0,2.452200623E0,1.319052372E1
4.893354583E0,1.192255692E1,-4.290827179E0,2.331401825E0,1.288386571E1
4.903420583E0,1.139161102E1,-4.196523285E0,2.247725830E0,1.234633066E1
4.913486583E0,1.074226135E1,-4.020938416E0,2.194586334E0,1.167819909E1
4.923552583E0,1.008737320E1,-3.751498718E0,2.176473999E0,1.098024953E1
4.933619583E0,9.382489014E0,-3.354075165E0,2.246528320E0,1.021409858E1
4.943685583E0,8.741671600E0,-2.924169159E0,2.347119141E0,9.511916521E0
4.953751583E0,8.365204468E0,-2.551444244E0,2.464026031E0,9.086139874E0
4.963817583E0,8.393345947E0,-2.306703186E0,2.539618835E0,9.067458277E0
4.973883583E0,8.718619537E0,-2.226020966E0,2.579885101E0,9.360838804E0
4.983950583E0,9.275611267E0,-2.370320892E0,2.614463196E0,9.924253287E0
4.994016583E0,9.866133270E0,-2.647694092E0,2.631677399E0,1.054877223E1
5.004082583E0,1.042821442E1,-2.949017487E0,2.595602417E0,1.114367587E1
5.014148583E0,1.082294357E1,-3.182382202E0,2.458936615E0,1.154599642E1
5.024214583E0,1.100286942E1,-3.300785980E0,2.336191864E0,1.172246202E1
5.034281583E0,1.090916428E1,-3.209326172E0,2.203268280E0,1.158291979E1
5.044347583E0,1.059870987E1,-3.003504181E0,2.053729248E0,1.120586864E1
5.054413583E0,1.033540741E1,-2.750230865E0,1.911974030E0,1.086462428E1
5.064479583E0,1.020413040E1,-2.540666656E0,1.741179199E0,1.065884465E1
5.074545583E0,1.014679962E1,-2.381996613E0,1.613494720E0,1.054679172E1
5.084611583E0,1.005968079E1,-2.211650848E0,1.573378143E0,1.041940957E1
5.094678583E0,9.864636383E0,-1.947749634E0,1.572030945E0,1.017723248E1
5.104744583E0,9.704170074E0,-1.509910126E0,1.556613007E0,9.943530031E0
5.114810583E0,9.643097076E0,-1.185834045E0,1.386865997E0,9.814220341E0
5.124876583E0,9.450148315E0,-1.172960815E0,1.175355835E0,9.594925826E0
5.134942583E0,8.944649506E0,-1.258133698E0,1.153950348E0,9.106110947E0
5.145009583E0,8.575367432E0,-1.200204163E0,1.232387238E0,8.746210318E0
5.155075583E0,8.419242096E0,-1.046174469E0,1.370699615E0,8.594005814E0
5.165141583E0,8.318950653E0,-8.843609619E-1,1.513802032E0,8.501684002E0
5.175207583E0,8.277486877E0,-7.985893250E-1,1.593735809E0,8.467262116E0
5.185273583E0,8.189320221E0,-8.211923218E-1,1.645378418E0,8.393246848E0
5.195339583E0,8.079598389E0,-8.559201050E-1,1.770368500E0,8.315450317E0
5.205406583E0,8.021369476E0,-8.818162537E-1,1.878294067E0,8.285406253E0
5.215472583E0,7.944429474E0,-9.698332214E-1,1.992506561E0,8.247703834E0
5.225538583E0,7.953111420E0,-1.031954041E0,2.105820923E0,8.291645926E0
5.235604583E0,8.104147339E0,-1.109043732E0,2.119592285E0,8.449843404E0
5.245670583E0,8.372389526E0,-1.201251984E0,2.060764618E0,8.705553602E0
5.255737583E0,8.612041168E0,-1.277443542E0,1.951342163E0,8.922267163E0
5.265803583E0,8.805588684E0,-1.394200745E0,1.890119476E0,9.113437300E0
5.275869583E0,8.874445496E0,-1.524729309E0,1.815275116E0,9.185630412E0
5.285935583E0,8.812474365E0,-1.586101685E0,1.793719940E0,9.131968803E0
5.296001583E0,8.713380432E0,-1.561702423E0,1.868115234E0,9.047196668E0
5.306068583E0,8.670569458E0,-1.494043121E0,2.034419403E0,9.030492893E0
5.316134583E0,8.752149811E0,-1.465452576E0,2.250120850E0,9.154819572E0
5.326200583E0,8.890761566E0,-1.390009460E0,2.463127899E0,9.329778485E0
5.336266583E0,9.026229858E0,-1.306782532E0,2.602937164E0,9.484502513E0
5.346332583E0,9.150321808E0,-1.216819611E0,2.673889618E0,9.610344679E0
5.356398583E0,9.312135315E0,-1.096469879E0,2.656974792E0,9.745646483E0
5.366465583E0,9.489666138E0,-1.004710693E0,2.584226074E0,9.886426624E0
5.376531583E0,9.633966064E0,-9.605525208E-1,2.506088562E0,1.000082212E1
5.386597583E0,9.816286926E0,-1.009500732E0,2.477797394E0,1.017438257E1
5.396663583E0,1.005279510E1,-1.126257935E0,2.462678833E0,1.041114467E1
5.406729583E0,1.022882904E1,-1.306932220E0,2.467019806E0,1.060298081E1
5.416796583E0,1.036235138E1,-1.550176392E0,2.448458405E0,1.075994059E1
5.426862583E0,1.029963181E1,-1.783840485E0,2.368075562E0,1.071784885E1
5.436928583E0,1.016581009E1,-2.007325745E0,2.320474548E0,1.061874068E1
5.446994583E0,1.006057892E1,-2.205513611E0,2.267484741E0,1.054613794E1
5.457060583E0,1.006222549E1,-2.414029999E0,2.282154236E0,1.059642160E1
5.467126250E0,1.023481659E1,-2.646346893E0,2.372715912E0,1.083440830E1
5.477193250E0,1.043824356E1,-2.865341492E0,2.500250702E0,1.110938180E1
5.487259250E0,1.062026505E1,-3.045417023E0,2.678380280E0,1.136830310E1
5.497325250E0,1.076471466E1,-3.119213562E0,2.815644836E0,1.155579642E1
5.507391250E0,1.091425369E1,-3.015928345E0,2.892285461E0,1.168683330E1
5.517457250E0,1.120015915E1,-2.860102386E0,2.939287720E0,1.192741225E1
5.527524250E0,1.156959091E1,-2.855012970E0,2.950813751E0,1.227655631E1
5.537590250E0,1.193498108E1,-3.096909943E0,3.013533325E0,1.269314806E1
5.547656250E0,1.223944794E1,-3.499123535E0,3.001707916E0,1.307892204E1
5.557722250E0,1.233420090E1,-3.828887787E0,3.007994843E0,1.326050250E1
5.567788250E0,1.214274902E1,-3.938609619E0,2.984643402E0,1.310980914E1
5.577854250E0,1.173245224E1,-3.817810822E0,2.995570679E0,1.269643882E1
5.587921250E0,1.118668716E1,-3.535797272E0,3.042872314E0,1.212035082E1
5.597987250E0,1.064107178E1,-3.136876831E0,3.078947296E0,1.151313690E1
5.608053250E0,1.026295807E1,-2.703527985E0,3.098706207E0,1.105619067E1
5.618119250E0,1.003288651E1,-2.323168945E0,3.096311188E0,1.075374672E1
5.628185250E0,9.969418488E0,-2.054477692E0,3.120411072E0,1.064646180E1
5.638252250E0,1.006132736E1,-1.935774536E0,3.115920410E0,1.070917790E1
5.648318250E0,1.019889130E1,-1.919608154E0,3.073857880E0,1.082362607E1
5.658384250E0,1.044797333E1,-2.044897614E0,2.998714142E0,1.106047193E1
5.668450250E0,1.069226532E1,-2.342329102E0,2.850971375E0,1.131101592E1
5.678516250E0,1.084973785E1,-2.691552887E0,2.657723236E0,1.149020284E1
5.688583250E0,1.099373840E1,-3.046165466E0,2.485880585E0,1.167565889E1
5.698649250E0,1.113624207E1,-3.399281158E0,2.350412292E0,1.187836006E1
5.708715250E0,1.119866226E1,-3.649411011E0,2.245480499E0,1.199043034E1
5.718781250E0,1.102921463E1,-3.760480042E0,2.185455322E0,1.185584246E1
5.728847250E0,1.066262695E1,-3.705544281E0,2.157014465E0,1.149240546E1
5.738913250E0,1.020173538E1,-3.490142212E0,2.237097931E0,1.101186200E1
5.748980250E0,9.806706848E0,-3.202141113E0,2.429597626E0,1.059849761E1
5.759046250E0,9.467661896E0,-2.869383087E0,2.652633820E0,1.024238484E1
5.769112250E0,9.134005737E0,-2.605032806E0,2.797682190E0,9.901680785E0
5.779178250E0,8.774303741E0,-2.478845215E0,2.882256317E0,9.562451633E0
5.789244250E0,8.436456299E0,-2.427352295E0,2.929557953E0,9.254628239E0
5.799311250E0,8.191864929E0,-2.479743347E0,2.930605774E0,9.046779996E0
5.809377250E0,8.052953796E0,-2.644999695E0,2.903212738E0,8.959616757E0
5.819443250E0,8.110434265E0,-2.850671997E0,2.840193787E0,9.053848660E0
5.829509250E0,8.217012634E0,-3.071762238E0,2.758314056E0,9.195831464E0
5.839575250E0,8.197702789E0,-3.221301270E0,2.637664948E0,9.194367258E0
5.849641250E0,8.044720917E0,-3.255130920E0,2.454445953E0,9.018742533E0
5.859708250E0,7.868537292E0,-3.132236481E0,2.266736298E0,8.767147651E0
5.869774250E0,7.682923279E0,-2.984044647E0,2.046843567E0,8.492431993E0
5.879840250E0,7.542066193E0,-2.793191528E0,1.844015350E0,8.251368007E0
5.889906250E0,7.485334167E0,-2.637515259E0,1.673519897E0,8.110942189E0
5.899972250E0,7.453300781E0,-2.552342377E0,1.592687988E0,8.037586651E0
5.910039250E0,7.465425568E0,-2.519859924E0,1.586550751E0,8.037376203E0
5.920105250E0,7.507637787E0,-2.565065918E0,1.644629974E0,8.102406806E0
5.930171250E0,7.613767090E0,-2.653681641E0,1.746418304E0,8.249936511E0
5.940237250E0,7.723189545E0,-2.761607208E0,1.859582977E0,8.410242563E0
5.950303250E0,7.798482971E0,-2.885998535E0,1.979783020E0,8.547798840E0
5.960370250E0,7.870782623E0,-2.961441650E0,2.051034851E0,8.655986351E0
5.970436250E0,7.884404297E0,-3.027304688E0,2.140099640E0,8.712544477E0
5.980502250E0,7.841593323E0,-3.015329590E0,2.172881470E0,8.677799966E0
5.990568250E0,7.823480988E0,-2.948867798E0,2.142045593E0,8.630818928E0
6.000634250E0,7.891289978E0,-2.941533051E0,2.148332520E0,8.691398439E0
6.010700250E0,8.012388153E0,-2.886447601E0,2.166594543E0,8.787723004E0
6.020767250E0,8.084388428E0,-2.817441101E0,2.164947968E0,8.830759328E0
6.030833250E0,8.081694031E0,-2.743644562E0,2.205064545E0,8.814968720E0
6.040899250E0,8.006250916E0,-2.657124481E0,2.262994080E0,8.733928465E0
6.050965250E0,7.906558228E0,-2.560575256E0,2.289339294E0,8.620399240E0
6.061031250E0,7.804171143E0,-2.499202881E0,2.258503418E0,8.500114114E0
6.071098250E0,7.698490906E0,-2.495310974E0,2.237996063E0,8.396544853E0
6.081164250E0,7.693700867E0,-2.604284363E0,2.195783844E0,8.414083239E0
6.091230250E0,7.806865540E0,-2.833308105E0,2.144590302E0,8.577531809E0
6.101296250E0,7.969427490E0,-3.105741577E0,2.052980804E0,8.796143214E0
6.111362250E0,8.246501312E0,-3.398832092E0,1.991907806E0,9.139176122E0
6.121428250E0,8.612190857E0,-3.667074280E0,1.908830566E0,9.553057064E0
6.131495250E0,9.044491882E0,-3.901486816E0,1.848805389E0,1.002210128E1
6.141561250E0,9.474697266E0,-4.018543396E0,1.837578735E0,1.045443805E1
6.151627250E0,9.881251831E0,-3.982917480E0,1.890269165E0,1.082016113E1
6.161693250E0,1.016401382E1,-3.790717163E0,2.040257263E0,1.103808694E1
6.171759250E0,1.033720367E1,-3.531007233E0,2.202669525E0,1.114349788E1
6.181826250E0,1.040905426E1,-3.283422089E0,2.365231476E0,1.116797167E1
6.191892250E0,1.051308792E1,-3.109932861E0,2.465672607E0,1.123727020E1
6.201958250E0,1.078133011E1,-3.029400330E0,2.425406342E0,1.145848774E1
6.212024250E0,1.122545654E1,-3.093317413E0,2.286944275E0,1.186632215E1
6.222090250E0,1.177271851E1,-3.414699097E0,2.100881195E0,1.243667048E1
6.232156250E0,1.211775101E1,-3.877835999E0,1.867366791E0,1.285941524E1
6.242223250E0,1.198782120E1,-4.115841064E0,1.597627716E0,1.277499194E1
6.252289250E0,1.178364578E1,-4.274960175E0,1.328038330E0,1.260528771E1
6.262355250E0,1.136331985E1,-4.120331726E0,1.122066650E0,1.213924237E1
6.272421250E0,1.077399536E1,-3.826941833E0,9.021739197E-1,1.146901816E1
6.282487250E0,1.017329453E1,-3.488495636E0,7.060816956E-1,1.077794390E1
6.292554250E0,9.643845520E0,-3.190016327E0,6.140231323E-1,1.017629525E1
6.302620250E0,9.189839630E0,-2.877765656E0,6.227050781E-1,9.649997368E0
6.312686250E0,8.792865143E0,-2.573897552E0,7.494914246E-1,9.192451437E0
6.322752250E0,8.465795288E0,-2.242636414E0,1.020727386E0,8.817085252E0
6.332818250E0,8.218060455E0,-1.933379517E0,1.472188568E0,8.569819904E0
6.342885250E0,8.111931152E0,-1.742227020E0,1.946402435E0,8.522163132E0
6.352951250E0,8.206384735E0,-1.714833984E0,2.409239960E0,8.722949226E0
6.363017250E0,8.434061279E0,-1.750908966E0,2.815495148E0,9.062344332E0
6.373083250E0,8.819060669E0,-1.917662201E0,3.154989166E0,9.560712109E0
6.383149250E0,9.204359436E0,-2.186054077E0,3.339705048E0,1.003258166E1
6.393216250E0,9.508526917E0,-2.497705994E0,3.370391235E0,1.039279349E1
6.403282250E0,9.719438324E0,-2.734513550E0,3.233575745E0,1.060193651E1
6.413348250E0,9.825417938E0,-2.874622192E0,3.036884766E0,1.067824702E1
6.423414250E0,9.861193542E0,-2.902464294E0,2.824925537E0,1.066056478E1
6.433480250E0,9.797725525E0,-2.849923553E0,2.626138916E0,1.053632267E1
6.443546250E0,9.673932953E0,-2.757565613E0,2.448458405E0,1.035297520E1
6.453613250E0,9.538764038E0,-2.618804169E0,2.294578400E0,1.015437072E1
6.463682708E0,9.380842438E0,-2.466720428E0,2.135010223E0,9.931927465E0
6.473748708E0,9.166937256E0,-2.264041901E0,2.024839325E0,9.657049170E0
6.483814708E0,8.887318726E0,-2.031275940E0,2.019151154E0,9.337424027E0
6.493880708E0,8.633895721E0,-1.817520447E0,2.080972595E0,9.065207270E0
6.503947708E0,8.380921783E0,-1.655108185E0,2.213297424E0,8.824846658E0
6.514013708E0,8.157137146E0,-1.535357208E0,2.377655640E0,8.634202599E0
6.524079708E0,7.982001343E0,-1.433568878E0,2.543061676E0,8.499095708E0
6.534145708E0,7.915988617E0,-1.373094635E0,2.704126740E0,8.477061170E0
6.544211708E0,7.946674805E0,-1.309776306E0,2.836301880E0,8.538721378E0
6.554277708E0,8.008496246E0,-1.242865448E0,2.948867798E0,8.624183900E0
6.564344708E0,8.071365509E0,-1.159039764E0,3.030597839E0,8.699128555E0
6.574410708E0,8.135432281E0,-1.128652954E0,3.057691498E0,8.764051186E0
6.584476708E0,8.170010376E0,-1.116079102E0,3.050656128E0,8.792110379E0
6.594542708E0,8.239166565E0,-1.146316223E0,2.956651611E0,8.828346126E0
6.604608708E0,8.284372559E0,-1.188827820E0,2.851719818E0,8.841744522E0
6.614675708E0,8.343948669E0,-1.248852997E0,2.716550903E0,8.863450909E0
6.624741708E0,8.366551666E0,-1.342109070E0,2.559228058E0,8.851558721E0
6.634807708E0,8.451425171E0,-1.415007477E0,2.421664124E0,8.904678024E0
6.644873708E0,8.564739532E0,-1.433119812E0,2.336940308E0,8.992768520E0
6.654939708E0,8.608149261E0,-1.410666504E0,2.274520111E0,9.014635624E0
6.665006708E0,8.647816772E0,-1.344204712E0,2.281854858E0,9.044251369E0
6.675072708E0,8.710236969E0,-1.314716034E0,2.354154510E0,9.118045282E0
6.685138708E0,8.744066620E0,-1.306932220E0,2.470163269E0,9.179786460E0
6.695204708E0,8.828041992E0,-1.267863464E0,2.582579498E0,9.285015888E0
6.705270708E0,9.123527527E0,-1.179696808E0,2.712509308E0,9.591045086E0
6.715336708E0,9.613159332E0,-9.719288635E-1,2.820434875E0,1.006540267E1
6.725403708E0,1.013033386E1,-6.938072205E-1,2.970123596E0,1.057954001E1
6.735469708E0,1.038690033E1,-4.040098572E-1,3.186274109E0,1.087213250E1
6.745535708E0,1.052730835E1,-1.275347900E-1,3.418890381E0,1.106929526E1
6.755601708E0,1.054078033E1,5.538482666E-2,3.537294159E0,1.111861356E1
6.765667708E0,1.045246399E1,6.765930176E-2,3.545227661E0,1.103753688E1
6.775734708E0,1.033600616E1,-1.077758789E-2,3.547323303E0,1.092779219E1
6.785800708E0,1.026026367E1,-1.505868530E-1,3.502716064E0,1.084272599E1
6.795866708E0,1.021386017E1,-3.823049927E-1,3.424728241E0,1.077951113E1
6.805932708E0,1.020008881E1,-6.219566345E-1,3.377576294E0,1.076274423E1
6.815998708E0,1.026475433E1,-8.613088989E-1,3.335513763E0,1.082740443E1
6.826064708E0,1.036744080E1,-1.086740112E0,3.289858704E0,1.093105681E1
6.836131708E0,1.053898407E1,-1.317859497E0,3.174748077E0,1.108539418E1
6.846197708E0,1.080797470E1,-1.514849854E0,3.010689240E0,1.132127806E1
6.856263708E0,1.095931000E1,-1.620230713E0,2.841990051E0,1.143715571E1
6.866329708E0,1.102427490E1,-1.564995575E0,2.618205414E0,1.143848101E1
6.876395708E0,1.116019226E1,-1.398092651E0,2.476899261E0,1.151692599E1
6.886462708E0,1.144460083E1,-1.328188019E0,2.455044708E0,1.178007708E1
6.896528708E0,1.185474792E1,-1.486708374E0,2.517764282E0,1.221001585E1
6.906594708E0,1.216864517E1,-1.815873871E0,2.588117981E0,1.257265596E1
6.916660708E0,1.219274506E1,-2.100132751E0,2.643652496E0,1.265158046E1
6.926726708E0,1.194201645E1,-2.165995789E0,2.748135223E0,1.244409667E1
6.936793708E0,1.153636002E1,-2.057321777E0,2.899320831E0,1.207171225E1
6.946859708E0,1.109358078E1,-1.825903015E0,3.062930603E0,1.165259629E1
6.956925708E0,1.073462723E1,-1.515747986E0,3.200494537E0,1.130366662E1
6.966991708E0,1.053883438E1,-1.271755371E0,3.268752594E0,1.110716595E1
6.977057708E0,1.051398605E1,-1.138083344E0,3.280877380E0,1.107263712E1
6.987123708E0,1.054392380E1,-1.108444977E0,3.347788239E0,1.111803334E1
6.997190708E0,1.057236465E1,-1.148112488E0,3.375031586E0,1.115723509E1
7.007256708E0,1.053613998E1,-1.219214630E0,3.367247772E0,1.112812148E1
7.017322708E0,1.046907944E1,-1.343456268E0,3.334915009E0,1.106924375E1
7.027388708E0,1.049512527E1,-1.537602539E0,3.339255981E0,1.112036450E1
7.037454708E0,1.059362045E1,-1.810934143E0,3.321143646E0,1.124874535E1
7.047521708E0,1.071426956E1,-2.137854309E0,3.250490570E0,1.139875793E1
7.057587708E0,1.083222427E1,-2.480791168E0,3.115022278E0,1.154100391E1
7.067653708E0,1.092308533E1,-2.829715576E0,2.987038422E0,1.167233832E1
7.077719708E0,1.092398346E1,-3.063080292E0,2.896925812E0,1.170931487E1
7.087785708E0,1.081291443E1,-3.181184692E0,2.820135498E0,1.161861518E1
7.097852708E0,1.061068497E1,-3.160228271E0,2.795436859E0,1.141876287E1
7.107918708E0,1.028571075E1,-2.985840912E0,2.805765381E0,1.107173930E1
7.117984708E0,9.936936035E0,-2.756517792E0,2.857557678E0,1.070078147E1
7.128050708E0,9.625583496E0,-2.488874359E0,2.988535309E0,1.038160375E1
7.138116708E0,9.238488464E0,-2.244432678E0,3.063828735E0,9.988703303E0
7.148182708E0,8.869805145E0,-2.066752167E0,3.145409088E0,9.635274058E0
7.158249708E0,8.596323853E0,-1.940863953E0,3.140319672E0,9.355498079E0
7.168315708E0,8.351582794E0,-1.912872162E0,3.157533875E0,9.131157388E0
7.178381708E0,8.197104034E0,-1.940115509E0,3.202889557E0,9.011940094E0
7.188447708E0,8.123157806E0,-2.017504578E0,3.247945862E0,8.978038193E0
7.198513708E0,8.011939087E0,-2.118993530E0,3.294948120E0,8.918407068E0
7.208580708E0,7.832911377E0,-2.208657074E0,3.290307770E0,8.778313729E0
7.218646708E0,7.625742188E0,-2.277214508E0,3.200494537E0,8.577926038E0
7.228712708E0,7.384294281E0,-2.300416260E0,3.039429474E0,8.310105205E0
7.238778708E0,7.169341278E0,-2.267335052E0,2.920127563E0,8.066437106E0
7.248844708E0,7.025789795E0,-2.226170654E0,2.817291412E0,7.890164062E0
7.258910708E0,7.033274231E0,-2.180066528E0,2.779569855E0,7.870555575E0
7.268977708E0,7.175179138E0,-2.150877228E0,2.745590515E0,7.977953108E0
7.279043708E0,7.374714203E0,-2.153871002E0,2.721939697E0,8.150737732E0
7.289109708E0,7.625442810E0,-2.162253571E0,2.645149384E0,8.355808388E0
7.299175708E0,7.906707916E0,-2.177222443E0,2.571203156E0,8.594615367E0
7.309241708E0,8.144114227E0,-2.203118591E0,2.483485565E0,8.794772801E0
7.319308708E0,8.279432831E0,-2.260449371E0,2.399809570E0,8.911662322E0
7.329374708E0,8.340505829E0,-2.303709412E0,2.333347778E0,8.961898593E0
7.339440708E0,8.324189758E0,-2.297272797E0,2.267035675E0,8.927992394E0
7.349506708E0,8.230484619E0,-2.264940033E0,2.200424194E0,8.815480534E0
7.359572708E0,8.163723450E0,-2.207908630E0,2.141746216E0,8.724008135E0
7.369639708E0,8.146958313E0,-2.170935516E0,2.136207733E0,8.697659125E0
7.379705708E0,8.141120453E0,-2.157164154E0,2.126627655E0,8.686411491E0
7.389771708E0,8.192164307E0,-2.151326294E0,2.156116333E0,8.740057122E0
7.399837708E0,8.237669678E0,-2.145039368E0,2.182162170E0,8.787617843E0
7.409903708E0,8.245902557E0,-2.125130768E0,2.226619720E0,8.801643321E0
7.419969708E0,8.307873688E0,-2.164498901E0,2.305206299E0,8.889308004E0
7.430036708E0,8.429869995E0,-2.269730072E0,2.361938324E0,9.043955737E0
7.440102708E0,8.696914673E0,-2.493514709E0,2.388133850E0,9.357196360E0
7.450168708E0,9.075327759E0,-2.848426666E0,2.443967743E0,9.820798681E0
7.460234708E0,9.327104187E0,-3.237916718E0,2.552342377E0,1.019771684E1
7.470297333E0,9.376202087E0,-3.481759644E0,2.672692108E0,1.035273389E1
7.480364333E0,9.447603607E0,-3.635489960E0,2.668201447E0,1.046868187E1
7.490430333E0,9.554780731E0,-3.719165955E0,2.585423584E0,1.057404584E1
7.500496333E0,9.740394745E0,-3.739972687E0,2.439177704E0,1.071504892E1
7.510562333E0,9.907447357E0,-3.741619263E0,2.254312134E0,1.082770294E1
7.520628333E0,9.964029694E0,-3.672762451E0,2.083966370E0,1.082192162E1
7.530695333E0,9.934391327E0,-3.585194550E0,1.877246246E0,1.072705945E1
7.540761333E0,1.015787659E1,-3.640878754E0,1.709744568E0,1.092527717E1
7.550827333E0,1.070379135E1,-3.961961060E0,1.662742310E0,1.153399310E1
7.560893333E0,1.127635071E1,-4.459825745E0,1.732946320E0,1.224945851E1
7.570959333E0,1.166584076E1,-4.959187317E0,1.828447723E0,1.280736509E1
7.581025333E0,1.186911804E1,-5.306016083E0,1.945055237E0,1.314583621E1
7.591092333E0,1.179157928E1,-5.466033325E0,2.020498352E0,1.315299494E1
7.601158333E0,1.127919479E1,-5.387297058E0,2.135459290E0,1.268082770E1
7.611224333E0,1.044258453E1,-5.062622223E0,2.286644897E0,1.182820614E1
7.621290333E0,9.547146606E0,-4.438869324E0,2.455942841E0,1.081125453E1
7.631356333E0,8.710686035E0,-3.615880737E0,2.649190979E0,9.796369611E0
7.641423333E0,8.061486053E0,-2.740201721E0,2.887345734E0,8.990719006E0
7.651489333E0,7.731272736E0,-1.995051270E0,3.097808075E0,8.564416066E0
7.661555333E0,7.669600983E0,-1.467248840E0,3.182831268E0,8.432438157E0
7.671621333E0,8.007897491E0,-1.199455719E0,3.216511230E0,8.712695378E0
7.681687333E0,8.607101440E0,-1.164877625E0,3.248993683E0,9.273354034E0
7.691754333E0,9.285041656E0,-1.231040039E0,3.250490570E0,9.914290045E0
7.701820333E0,9.859696655E0,-1.363065491E0,3.167563019E0,1.044533490E1
7.711886333E0,1.031954041E1,-1.529519348E0,3.048859863E0,1.086866552E1
7.721952333E0,1.060245209E1,-1.691482544E0,2.812201996E0,1.109871990E1
7.732018333E0,1.063583267E1,-1.765578461E0,2.494263153E0,1.106614443E1
7.742084333E0,1.050769913E1,-1.912123718E0,2.179018707E0,1.090027892E1
7.752151333E0,1.021954834E1,-2.032922516E0,1.921254730E0,1.059543118E1
7.762217333E0,9.858349457E0,-2.110610962E0,1.743723907E0,1.023143713E1
7.772283333E0,9.523944855E0,-2.127525787E0,1.658401337E0,9.898595181E0
7.782349333E0,9.172625427E0,-2.073338470E0,1.605860596E0,9.540156073E0
7.792415333E0,8.858728180E0,-1.964215393E0,1.625619507E0,9.218342902E0
7.802482333E0,8.589737549E0,-1.835183716E0,1.703607330E0,8.947277148E0
7.812548333E0,8.428971863E0,-1.652563477E0,1.870510254E0,8.790753171E0
7.822614333E0,8.217461700E0,-1.541943512E0,2.137704620E0,8.629834740E0
7.832680333E0,8.047565002E0,-1.416055298E0,2.319127350E0,8.493931171E0
7.842746333E0,7.921527100E0,-1.161285095E0,2.455344086E0,8.374239622E0
7.852812333E0,8.017178192E0,-8.774752808E-1,2.463576965E0,8.432930718E0
7.862879333E0,8.232580261E0,-7.988887024E-1,2.361489258E0,8.601757520E0
7.872945333E0,8.241262207E0,-9.653425598E-1,2.170187073E0,8.576712713E0
7.883011333E0,7.951464844E0,-1.252295837E0,2.148182831E0,8.331190041E0
7.893077333E0,7.718998260E0,-1.386267242E0,2.307900696E0,8.175027623E0
7.903143333E0,7.757917328E0,-1.424587555E0,2.346370697E0,8.229227571E0
7.913210333E0,7.917485504E0,-1.541943512E0,2.253414001E0,8.375084547E0
7.923276333E0,8.086633759E0,-1.702409821E0,2.057770844E0,8.516235412E0
7.933342333E0,8.241860962E0,-1.880539398E0,1.895059204E0,8.663483706E0
7.943408333E0,8.354875946E0,-2.038910065E0,1.795516205E0,8.785498550E0
7.953474333E0,8.388705597E0,-2.135309601E0,1.837878113E0,8.849165195E0
7.963541333E0,8.409961395E0,-2.151326294E0,1.968706055E0,8.901205481E0
7.973607333E0,8.459957428E0,-2.108665009E0,2.220632172E0,8.997141493E0
7.983673333E0,8.570128326E0,-2.035467224E0,2.526895294E0,9.163810680E0
7.993739333E0,8.708440704E0,-1.879790955E0,2.779719543E0,9.332598474E0
8.003805333E0,8.868158569E0,-1.694925385E0,2.905308380E0,9.484609916E0
8.013871333E0,8.987759857E0,-1.498084717E0,2.975811768E0,9.585381617E0
8.023938333E0,9.091793518E0,-1.350341949E0,2.953358459E0,9.654349224E0
8.034004333E0,9.177265778E0,-1.214125214E0,2.899919586E0,9.700816501E0
8.044070333E0,9.211544495E0,-1.102008362E0,2.841990051E0,9.702777018E0
8.054136333E0,9.222172394E0,-9.819580078E-1,2.795137482E0,9.686356319E0
8.064202333E0,9.248367920E0,-8.328680420E-1,2.739153900E0,9.681370897E0
8.074269333E0,9.305848389E0,-7.270381165E-1,2.673141174E0,9.709432650E0
8.084335333E0,9.366023254E0,-7.006929016E-1,2.609224091E0,9.747892721E0
8.094401333E0,9.507329407E0,-7.741900635E-1,2.521207123E0,9.866365494E0
8.104467333E0,9.642947388E0,-8.931925964E-1,2.389780426E0,9.974731967E0
8.114533333E0,9.658215637E0,-1.040935364E0,2.253114624E0,9.972020920E0
8.124600333E0,9.688003693E0,-1.205742645E0,2.124382324E0,9.991207691E0
8.134666333E0,9.747879181E0,-1.424138489E0,2.031874695E0,1.005871929E1
8.144732333E0,9.879455566E0,-1.695673828E0,1.986519012E0,1.021886539E1
8.154798333E0,1.007180557E1,-1.982327728E0,2.016905823E0,1.046130010E1
8.164864333E0,1.026789780E1,-2.223925323E0,2.056573334E0,1.070537542E1
8.174930333E0,1.046788193E1,-2.449356537E0,2.167193298E0,1.096688772E1
8.184997333E0,1.058029816E1,-2.621498566E0,2.336940308E0,1.114792599E1
8.195063333E0,1.067160828E1,-2.732567596E0,2.525548096E0,1.130170527E1
8.205129333E0,1.083461929E1,-2.812950439E0,2.681523743E0,1.151052714E1
8.215195333E0,1.114447495E1,-2.935395813E0,2.924917603E0,1.188995430E1
8.225261333E0,1.159428955E1,-3.116070099E0,3.180436249E0,1.241984774E1
8.235328333E0,1.193752579E1,-3.268153839E0,3.407514038E0,1.283730904E1
8.245394333E0,1.201701050E1,-3.324885864E0,3.564537506E0,1.296801199E1
8.255460333E0,1.197000824E1,-3.255879364E0,3.697610779E0,1.294427183E1
8.265526333E0,1.181253571E1,-3.068319397E0,3.883524170E0,1.280751122E1
8.275592333E0,1.165536255E1,-2.824925537E0,4.080364838E0,1.266795396E1
8.285659333E0,1.146570694E1,-2.561323700E0,4.196523285E0,1.247532053E1
8.295725333E0,1.126332779E1,-2.292482758E0,4.226161652E0,1.224656982E1
8.305791333E0,1.118623810E1,-2.089205475E0,4.253404999E0,1.214858660E1
8.315857333E0,1.120704483E1,-1.989961853E0,4.255949707E0,1.215199201E1
8.325923333E0,1.127829666E1,-2.005679169E0,4.203109589E0,1.220200208E1
8.335989333E0,1.138083344E1,-2.135459290E0,4.090094604E0,1.228057124E1
8.346056333E0,1.149339935E1,-2.402354279E0,3.897145844E0,1.237163209E1
8.356122333E0,1.157228531E1,-2.742596741E0,3.719615021E0,1.246094539E1
8.366188333E0,1.153201904E1,-3.063828735E0,3.571423187E0,1.245510230E1
8.376254333E0,1.144220581E1,-3.395538940E0,3.471580811E0,1.243002944E1
8.386320333E0,1.130718658E1,-3.761228485E0,3.453318787E0,1.240664011E1
8.396387333E0,1.102247864E1,-3.993994446E0,3.528312836E0,1.224320295E1
8.406453333E0,1.053763687E1,-4.025429077E0,3.624562683E0,1.184834692E1
8.416519333E0,9.979747009E0,-3.866160278E0,3.718417511E0,1.133001211E1
8.426585333E0,9.590107269E0,-3.630250854E0,3.820505219E0,1.094281220E1
8.436651333E0,9.353000336E0,-3.400927734E0,3.896098022E0,1.068758647E1
8.446718333E0,9.247469788E0,-3.298241272E0,3.889062653E0,1.056025100E1
8.456784333E0,9.075477448E0,-3.311114502E0,3.942651215E0,1.043418750E1
8.466850083E0,8.659642181E0,-3.248993683E0,4.242926788E0,1.017584347E1
8.476916083E0,8.078550568E0,-3.124302979E0,4.771477661E0,9.888945720E0
8.486982083E0,7.898475037E0,-2.783611450E0,5.677543488E0,1.011775176E1
8.497048083E0,7.922874298E0,-2.781665497E0,6.166127472E0,1.041780822E1
8.507115083E0,7.900420990E0,-3.029250641E0,6.276747437E0,1.053520620E1
8.517181083E0,7.865393829E0,-3.319946136E0,6.196364594E0,1.054899979E1
8.527247083E0,7.942932587E0,-3.774550781E0,5.755381622E0,1.051008227E1
8.537313083E0,8.087681580E0,-4.129762115E0,5.077591095E0,1.040420395E1
8.547379083E0,8.020920410E0,-4.333638153E0,4.321962433E0,1.008934800E1
8.557446083E0,7.800877991E0,-4.420457611E0,3.662733307E0,9.685543774E0
8.567512083E0,7.468119965E0,-4.384981384E0,3.001109161E0,9.165562380E0
8.577578083E0,7.039112091E0,-4.212989044E0,2.432741089E0,8.556670201E0
8.587644083E0,6.615942078E0,-3.944597168E0,1.942211151E0,7.943722084E0
8.597710083E0,6.198160858E0,-3.564687195E0,1.488804016E0,7.303473846E0
8.607777083E0,5.810018005E0,-3.201093292E0,1.039887543E0,6.714512163E0
8.617843083E0,5.525609436E0,-2.861599274E0,5.592370605E-1,6.247708070E0
8.627909083E0,5.601052551E0,-2.537672882E0,2.005828857E-1,6.152382208E0
8.637975083E0,5.970334625E0,-2.306852875E0,1.124162292E-1,6.401492258E0
8.648041083E0,6.381828918E0,-2.169288940E0,3.267704773E-1,6.748357859E0
8.658107083E0,6.644981689E0,-2.035766602E0,7.403604126E-1,6.989153085E0
8.668174083E0,6.808890839E0,-1.870510254E0,9.497749329E-1,7.124736871E0
8.678240083E0,7.034771118E0,-1.635199585E0,1.264720001E0,7.332216517E0
8.688306083E0,7.160809021E0,-1.480571136E0,1.611099701E0,7.487651098E0
8.698372083E0,7.277865601E0,-1.378932495E0,1.978884888E0,7.667122532E0
8.708438083E0,7.444169769E0,-1.361119537E0,2.289938049E0,7.906461043E0
8.718505083E0,7.719147949E0,-1.465751953E0,2.617756348E0,8.281685948E0
8.728571083E0,8.018525391E0,-1.630110168E0,2.954705658E0,8.699672070E0
8.738637083E0,8.304580536E0,-1.770368500E0,3.298241272E0,9.109262209E0
8.748703083E0,8.527616730E0,-1.877695312E0,3.538491669E0,9.421619291E0
8.758769083E0,8.735983429E0,-1.960024109E0,3.689527588E0,9.683579648E0
8.768836083E0,8.879983978E0,-2.065554657E0,3.736978912E0,9.853204701E0
8.778902083E0,8.980574799E0,-2.169588318E0,3.672014008E0,9.941907466E0
8.788968083E0,9.110953674E0,-2.286345520E0,3.545976105E0,1.004045812E1
8.799034083E0,9.314081268E0,-2.420316925E0,3.380420380E0,1.019986695E1
8.809100083E0,9.557475128E0,-2.607577515E0,3.243754578E0,1.042433380E1
8.819166083E0,9.801467743E0,-2.831960907E0,3.113226013E0,1.066681530E1
8.829233083E0,1.011162277E1,-3.052302704E0,2.985242157E0,1.097602558E1
8.839299083E0,1.039917480E1,-3.272045746E0,2.926264801E0,1.128769887E1
8.849365083E0,1.046713348E1,-3.341651001E0,2.839595032E0,1.134860409E1
8.859431083E0,1.046967819E1,-3.431613922E0,2.820434875E0,1.137299382E1
8.869497083E0,1.047791107E1,-3.628753967E0,2.993924103E0,1.148555864E1
8.879564083E0,1.043315414E1,-3.700604553E0,3.156186676E0,1.151115519E1
8.889630083E0,1.039453445E1,-3.613635406E0,3.184477844E0,1.145624749E1
8.899696083E0,1.042806473E1,-3.522474976E0,3.177592163E0,1.145641549E1
8.909762083E0,1.063074326E1,-3.562890930E0,3.162024536E0,1.164926148E1
8.919828083E0,1.095317276E1,-3.710034943E0,3.159629517E0,1.198831145E1
8.929895083E0,1.124027573E1,-3.727847900E0,3.017574921E0,1.222073675E1
8.939961083E0,1.133727402E1,-3.685635681E0,2.819985809E0,1.225030663E1
8.950027083E0,1.118294495E1,-3.559148712E0,2.630629578E0,1.202688693E1
8.960093083E0,1.075693085E1,-3.334166565E0,2.462080078E0,1.152779538E1
8.970159083E0,1.020757324E1,-2.960842896E0,2.332898712E0,1.088133992E1
8.980226083E0,9.707313538E0,-2.478695526E0,2.273771667E0,1.027355368E1
8.990292083E0,9.288783875E0,-2.004930725E0,2.297721863E0,9.776542274E0
9.000358083E0,9.015003204E0,-1.587897949E0,2.389630737E0,9.460551661E0
9.010424083E0,8.883277130E0,-1.285676422E0,2.381697235E0,9.286444861E0
9.020490083E0,8.891360321E0,-1.144669647E0,2.343825989E0,9.266071294E0
9.030556083E0,8.988508301E0,-1.181792450E0,2.244282990E0,9.339524667E0
9.040623083E0,9.067993011E0,-1.466500397E0,2.097288666E0,9.422194034E0
9.050689083E0,9.150022430E0,-1.867965546E0,1.979633331E0,9.546263870E0
9.060755083E0,9.282047882E0,-2.271376648E0,1.897154846E0,9.742420709E0
9.070821083E0,9.503886566E0,-2.588267670E0,1.842069397E0,1.002078884E1
9.080887083E0,9.742490387E0,-2.777474213E0,1.785337372E0,1.028678334E1
9.090954083E0,9.834998016E0,-2.860102386E0,1.793121185E0,1.039820442E1
9.101020083E0,9.816885681E0,-2.936892700E0,1.819616089E0,1.040709306E1
9.111086083E0,9.730515289E0,-2.940934296E0,1.770817566E0,1.031832434E1
9.121152083E0,9.551188202E0,-2.740501099E0,1.678309937E0,1.007731445E1
9.131218083E0,9.347162476E0,-2.496957550E0,1.529669037E0,9.795107489E0
9.141284083E0,9.122330017E0,-2.289788361E0,1.414708099E0,9.511121631E0
9.151351083E0,8.974437561E0,-2.112107849E0,1.310225372E0,9.312261789E0
9.161417083E0,8.876241760E0,-1.889520721E0,1.265019379E0,9.162872387E0
9.171483083E0,8.818910980E0,-1.597328339E0,1.309626617E0,9.057580835E0
9.181549083E0,8.795559540E0,-1.379531250E0,1.378782806E0,9.009218396E0
9.191615083E0,8.661438446E0,-1.265917511E0,1.445244598E0,8.871966808E0
9.201682083E0,8.512049103E0,-1.219064941E0,1.504521332E0,8.729529409E0
9.211748083E0,8.408913574E0,-1.229393463E0,1.493444366E0,8.628534746E0
9.221814083E0,8.372838593E0,-1.269510040E0,1.503323822E0,8.600933923E0
9.231880083E0,8.431217194E0,-1.406924286E0,1.443747711E0,8.668867675E0
9.241946083E0,8.510552216E0,-1.584305420E0,1.384171600E0,8.766724228E0
9.252013083E0,8.613687744E0,-1.776356049E0,1.339714050E0,8.896397647E0
9.262079083E0,8.662785645E0,-1.905238037E0,1.344504089E0,8.971146992E0
9.272145083E0,8.682694244E0,-1.997446289E0,1.358724518E0,9.012497064E0
9.282211083E0,8.645272064E0,-2.055375824E0,1.361568604E0,8.989948159E0
9.292277083E0,8.527467041E0,-2.082469482E0,1.375789032E0,8.885221930E0
9.302344083E0,8.390950928E0,-2.061662750E0,1.401535492E0,8.753445750E0
9.312410083E0,8.301586761E0,-2.000889130E0,1.451082458E0,8.661728486E0
9.322476083E0,8.232879639E0,-1.923050995E0,1.528022461E0,8.591465819E0
9.332542083E0,8.227490845E0,-1.803449707E0,1.663041687E0,8.585437910E0
9.342608083E0,8.415948944E0,-1.713187408E0,1.851200409E0,8.785792547E0
9.352674083E0,8.591982880E0,-1.645228729E0,2.046544189E0,8.984280188E0
9.362741083E0,8.832382965E0,-1.533261566E0,2.221530304E0,9.235641654E0
9.372807083E0,9.045689392E0,-1.472038879E0,2.351160736E0,9.461466686E0
9.382873083E0,9.147028656E0,-1.385818176E0,2.409988403E0,9.560160530E0
9.392939083E0,9.167086945E0,-1.264570312E0,2.407743073E0,9.562000200E0
9.403005083E0,9.193432159E0,-1.155896301E0,2.391876068E0,9.569553921E0
9.413072083E0,9.197024689E0,-1.056053925E0,2.391277313E0,9.561313728E0
9.423138083E0,9.253756714E0,-1.006806335E0,2.385888519E0,9.609273456E0
9.433204083E0,9.371711426E0,-9.657916260E-1,2.348915405E0,9.709744183E0
9.443270083E0,9.487570496E0,-9.681866455E-1,2.297871552E0,9.809770281E0
9.453336083E0,9.696835327E0,-1.035995636E0,2.309397583E0,1.002173735E1
9.463403708E0,9.906549225E0,-1.139131165E0,2.353855133E0,1.024587582E1
9.473469708E0,1.001417542E1,-1.252744904E0,2.419269104E0,1.037814733E1
9.483535708E0,1.005174728E1,-1.338666229E0,2.493215332E0,1.044249843E1
9.493601708E0,1.004755600E1,-1.416953430E0,2.560874634E0,1.046514297E1
9.503667708E0,1.006656647E1,-1.512005768E0,2.630479889E0,1.051386448E1
9.513733708E0,1.010084518E1,-1.668580170E0,2.704875183E0,1.058903126E1
9.523800708E0,1.018886215E1,-1.829046478E0,2.760110321E0,1.071338098E1
9.533866708E0,1.032403107E1,-1.981878662E0,2.801574097E0,1.087944290E1
9.543932708E0,1.044947021E1,-2.177072754E0,2.866089935E0,1.105194757E1
9.553998708E0,1.057475967E1,-2.385289764E0,2.943329315E0,1.123291311E1
9.564064708E0,1.068313431E1,-2.536774750E0,3.038980408E0,1.139297971E1
9.574131708E0,1.079450272E1,-2.590662689E0,3.087479553E0,1.152238482E1
9.584197708E0,1.100481537E1,-2.613265686E0,3.130440216E0,1.173604596E1
9.594263708E0,1.135718262E1,-2.685715027E0,3.156935120E0,1.208986772E1
9.604329708E0,1.175969559E1,-2.837948456E0,3.227438507E0,1.252041337E1
9.614395708E0,1.208452011E1,-3.093766479E0,3.275488586E0,1.289712537E1
9.624462708E0,1.218091965E1,-3.326682129E0,3.315156097E0,1.305495605E1
9.634528708E0,1.209350143E1,-3.459905090E0,3.348836060E0,1.301685151E1
9.644594708E0,1.186597458E1,-3.449277191E0,3.399580536E0,1.281624023E1
9.654660708E0,1.152752838E1,-3.361858978E0,3.504961395E0,1.250882731E1
9.664726708E0,1.111872849E1,-3.171155548E0,3.616778870E0,1.211459616E1
9.674792708E0,1.075992462E1,-2.914888458E0,3.707490234E0,1.174810778E1
9.684859708E0,1.041938278E1,-2.601140900E0,3.793860626E0,1.138959393E1
9.694925708E0,1.016521133E1,-2.347268829E0,3.778891754E0,1.109599997E1
9.704991708E0,9.907896423E0,-2.132166138E0,3.685036926E0,1.078387876E1
9.715057708E0,9.751322021E0,-2.012564850E0,3.596421204E0,1.058645096E1
9.725123708E0,9.784403229E0,-2.004032593E0,3.429518280E0,1.055993792E1
9.735190708E0,9.908944244E0,-2.143542480E0,3.283571777E0,1.065663146E1
9.745256708E0,1.002180954E1,-2.388732605E0,3.150049438E0,1.077337094E1
9.755322708E0,1.009994705E1,-2.704426117E0,3.002755737E0,1.087839111E1
9.765388708E0,1.012734009E1,-3.008593597E0,2.912792816E0,1.095896960E1
9.775454708E0,1.013527359E1,-3.278182983E0,2.835104370E0,1.102306995E1
9.785521708E0,1.007000931E1,-3.491040344E0,2.794538727E0,1.101825289E1
9.795587708E0,9.886490936E0,-3.586691437E0,2.786305847E0,1.087982347E1
9.805653708E0,9.592502289E0,-3.613336029E0,2.834655304E0,1.063520419E1
9.815719708E0,9.266480255E0,-3.525917816E0,2.872526550E0,1.032236221E1
9.825785708E0,8.981472931E0,-3.312312012E0,2.941233673E0,1.001444569E1
9.835851708E0,8.734336853E0,-3.009042664E0,2.992127838E0,9.710602814E0
9.845918708E0,8.580606537E0,-2.734064484E0,3.004851379E0,9.493737354E0
9.855984708E0,8.495882721E0,-2.476599884E0,2.969973907E0,9.334576327E0
9.866050708E0,8.351433105E0,-2.315235443E0,2.856509857E0,9.125042391E0
9.876116708E0,8.236023102E0,-2.208657074E0,2.734812927E0,8.954855909E0
9.886182708E0,8.077053680E0,-2.179617462E0,2.549049225E0,8.745694963E0
9.896249708E0,7.920928345E0,-2.179467773E0,2.382894745E0,8.553909807E0
9.906315708E0,7.797884216E0,-2.210603027E0,2.221380615E0,8.404064245E0
9.916381708E0,7.761509857E0,-2.271376648E0,2.079625397E0,8.350151432E0
9.926447708E0,7.796986084E0,-2.322869568E0,1.998793488E0,8.377582612E0
9.936513708E0,7.876470795E0,-2.385439453E0,1.951641541E0,8.458015031E0
9.946580708E0,7.940836945E0,-2.440674591E0,1.915267181E0,8.525375782E0
9.956646708E0,7.982600098E0,-2.479743347E0,1.909129944E0,8.574136022E0
9.966712708E0,7.932154999E0,-2.528092804E0,1.935924225E0,8.547405381E0
9.976778708E0,7.847880249E0,-2.583777008E0,2.018402710E0,8.505238241E0
9.986844708E0,7.764952698E0,-2.620750122E0,2.152374115E0,8.473224648E0
9.996911708E0,7.721093903E0,-2.629581757E0,2.330204315E0,8.482914795E0
1.000697771E1,7.692203979E0,-2.666854248E0,2.478246460E0,8.510218514E0
1.001704371E1,7.675139465E0,-2.753374329E0,2.640808411E0,8.571038739E0
1.002710971E1,7.697742462E0,-2.825823669E0,2.701731720E0,8.633647706E0
1.003717571E1,7.684270477E0,-2.846480713E0,2.619402924E0,8.603007433E0
1.004724171E1,7.684120789E0,-2.839445343E0,2.519111481E0,8.570535853E0
1.005730871E1,7.647447052E0,-2.835852814E0,2.387684784E0,8.498620254E0
1.006737471E1,7.637866974E0,-2.792443085E0,2.245779877E0,8.436721967E0
1.007744071E1,7.623646545E0,-2.764002228E0,2.132764893E0,8.385009305E0
1.008750671E1,7.600594482E0,-2.673739929E0,2.070344696E0,8.318909115E0
1.009757271E1,7.570207672E0,-2.596949615E0,2.064955902E0,8.265363536E0
1.010763971E1,7.554190979E0,-2.492766266E0,2.120041351E0,8.232512395E0
1.011770571E1,7.536078644E0,-2.374212799E0,2.203717346E0,8.202788421E0
1.012777171E1,7.591613159E0,-2.310295715E0,2.285148010E0,8.257842217E0
1.013783771E1,7.668702850E0,-2.273621979E0,2.331102448E0,8.331410381E0
1.014790371E1,7.788004761E0,-2.269879761E0,2.279010773E0,8.426106004E0
1.015797071E1,7.866591339E0,-2.325264587E0,2.279459839E0,8.513874080E0
1.016803671E1,8.044870605E0,-2.463726654E0,2.259102173E0,8.711683805E0
1.017810271E1,8.344098358E0,-2.618205414E0,2.222877502E0,9.023312108E0
1.018816871E1,8.674012299E0,-2.848276978E0,2.116448822E0,9.371794210E0
1.019823471E1,8.985364838E0,-3.060984650E0,1.946701813E0,9.689997742E0
1.020830071E1,9.382788391E0,-3.254083099E0,1.790576477E0,1.009118125E1
1.021836771E1,9.809101868E0,-3.495231628E0,1.707798615E0,1.055233148E1
1.022843371E1,1.020802231E1,-3.788920898E0,1.692530365E0,1.101926949E1
1.023849971E1,1.047596512E1,-4.066743164E0,1.757046204E0,1.137415740E1
1.024856571E1,1.060649368E1,-4.213438110E0,1.867067413E0,1.156445890E1
1.025863171E1,1.058029816E1,-4.234244843E0,1.973496094E0,1.156573497E1
1.026869871E1,1.054422318E1,-4.132306824E0,2.066752167E0,1.151208350E1
1.027876471E1,1.058898010E1,-3.959566040E0,2.118095398E0,1.150178208E1
1.028883071E1,1.090587112E1,-3.872896271E0,2.169139252E0,1.177465565E1
1.029889671E1,1.141466309E1,-3.993695068E0,2.231260071E0,1.229726210E1
1.030896271E1,1.180280594E1,-4.261188812E0,2.283202057E0,1.275448822E1
1.031902971E1,1.198587524E1,-4.430337067E0,2.328408051E0,1.298886354E1
1.032909571E1,1.197898956E1,-4.364773407E0,2.378404083E0,1.296935788E1
1.033916171E1,1.180894318E1,-4.049678650E0,2.428100739E0,1.271796797E1
1.034922771E1,1.152513336E1,-3.567231903E0,2.531086578E0,1.232721549E1
1.035929371E1,1.110076584E1,-3.013233948E0,2.642454987E0,1.180208242E1
1.036936071E1,1.065304688E1,-2.477498016E0,2.669398956E0,1.125837888E1
1.037942671E1,1.020308258E1,-1.941013641E0,2.624043274E0,1.071242415E1
1.038949271E1,9.867330780E0,-1.459315338E0,2.513423309E0,1.028645297E1
1.039955871E1,9.652677155E0,-1.079105988E0,2.440524902E0,1.001472954E1
1.040962471E1,9.601782990E0,-8.104147339E-1,2.423909454E0,9.936113207E0
1.041969071E1,9.794432373E0,-6.938072205E-1,2.480491791E0,1.012744358E1
1.042975771E1,1.004740631E1,-6.878196716E-1,2.583178253E0,1.039693606E1
1.043982371E1,1.031744476E1,-8.298742676E-1,2.647245026E0,1.068392549E1
1.044988971E1,1.067250641E1,-1.103654938E0,2.654130707E0,1.105282123E1
1.045995571E1,1.098026642E1,-1.376537476E0,2.561922455E0,1.135889751E1
1.047002133E1,1.109612549E1,-1.643432465E0,2.450554047E0,1.148172837E1
1.048008833E1,1.108923981E1,-1.866019592E0,2.218536530E0,1.146190093E1
1.049015433E1,1.096784225E1,-2.027683411E0,1.989512787E0,1.132974955E1
1.050022033E1,1.068283493E1,-2.074236603E0,1.835932159E0,1.103612552E1
1.051028633E1,1.043629761E1,-2.067201233E0,1.713486786E0,1.077616192E1
1.052035233E1,1.014410522E1,-1.994452515E0,1.686842194E0,1.047502498E1
1.053041933E1,9.819879456E0,-1.817221069E0,1.665137329E0,1.012447565E1
1.054048533E1,9.520502014E0,-1.656006317E0,1.538500671E0,9.785157119E0
1.055055133E1,9.124874725E0,-1.490749969E0,1.405876465E0,9.352120768E0
1.056061733E1,8.704848175E0,-1.313219147E0,1.273701324E0,8.895012161E0
1.057068333E1,8.336763611E0,-1.143322449E0,1.221759338E0,8.503029437E0
1.058074933E1,7.985593872E0,-9.957293701E-1,1.240320740E0,8.142455527E0
1.059081633E1,7.696245575E0,-8.788224792E-1,1.312021637E0,7.856584861E0
1.060088233E1,7.484885101E0,-8.454418945E-1,1.390757904E0,7.659796637E0
1.061094833E1,7.392826538E0,-8.387059021E-1,1.428928528E0,7.576222578E0
1.062101433E1,7.353458405E0,-9.150471497E-1,1.404379578E0,7.542078214E0
1.063108033E1,7.388335876E0,-1.056203613E0,1.337468719E0,7.582341042E0
1.064114733E1,7.487429810E0,-1.219963074E0,1.269959106E0,7.691730052E0
1.065121333E1,7.572153625E0,-1.393751678E0,1.158890076E0,7.786082486E0
1.066127933E1,7.611671448E0,-1.549877014E0,1.068328400E0,7.840981224E0
1.067134533E1,7.611671448E0,-1.665436707E0,9.810598755E-1,7.853260478E0
1.068141133E1,7.567662964E0,-1.746268616E0,9.544152832E-1,7.824952738E0
1.069147833E1,7.483238525E0,-1.851350098E0,9.913883972E-1,7.772336004E0
1.070154433E1,7.412735138E0,-1.933828583E0,1.049916687E0,7.732442063E0
1.071161033E1,7.410040741E0,-1.979333954E0,1.206940155E0,7.764223800E0
1.072167633E1,7.485483856E0,-1.979184265E0,1.389560394E0,7.866417037E0
1.073174233E1,7.625891876E0,-1.987716522E0,1.599124603E0,8.041296125E0
1.074180933E1,7.859555969E0,-1.989363098E0,1.787133636E0,8.302049880E0
1.075187533E1,8.113877106E0,-1.957030334E0,1.908980255E0,8.562077729E0
1.076194133E1,8.339158630E0,-1.919159088E0,1.985321503E0,8.784431668E0
1.077200733E1,8.482859802E0,-1.886526947E0,2.007924500E0,8.919061338E0
1.078207333E1,8.581205292E0,-1.788031769E0,2.056423645E0,9.003500434E0
1.079214033E1,8.639134827E0,-1.655257874E0,2.106120300E0,9.044903090E0
1.080220633E1,8.683742065E0,-1.500030670E0,2.141297150E0,9.068771789E0
1.081227233E1,8.756490784E0,-1.335822144E0,2.153272247E0,9.115762887E0
1.082233833E1,8.941206665E0,-1.202748871E0,2.120340729E0,9.267557730E0
1.083240433E1,9.203910370E0,-1.170565796E0,2.105072479E0,9.513859392E0
1.084247033E1,9.529932404E0,-1.270707550E0,2.080074463E0,9.836717901E0
1.085253733E1,9.858050079E0,-1.427731018E0,2.067650299E0,1.017323670E1
1.086260333E1,1.013781830E1,-1.654808807E0,2.067051544E0,1.047790314E1
1.087266933E1,1.039004379E1,-1.925895081E0,2.117346954E0,1.077707010E1
1.088273533E1,1.068762497E1,-2.297721863E0,2.147284698E0,1.114072192E1
1.089280133E1,1.098745148E1,-2.705324249E0,2.138752441E0,1.151595117E1
1.090286833E1,1.123458755E1,-3.041225739E0,2.114951935E0,1.182954070E1
1.091293433E1,1.142723694E1,-3.261866913E0,2.088157654E0,1.206573339E1
1.092300033E1,1.167646866E1,-3.367996216E0,2.065255280E0,1.232674321E1
1.093306633E1,1.203482346E1,-3.422632599E0,2.076481934E0,1.268318441E1
1.094313233E1,1.234348160E1,-3.448379059E0,2.165846100E0,1.299783618E1
1.095319933E1,1.260648468E1,-3.393143921E0,2.328408051E0,1.326116004E1
1.096326533E1,1.282188675E1,-3.234473877E0,2.431393890E0,1.344523251E1
1.097333133E1,1.293594955E1,-3.000360718E0,2.546953583E0,1.352138779E1
1.098339733E1,1.283640656E1,-2.840493164E0,2.608176270E0,1.340314583E1
1.099346333E1,1.256157806E1,-2.706222382E0,2.681074677E0,1.312650161E1
1.100353033E1,1.216011292E1,-2.558778992E0,2.774480438E0,1.273237754E1
1.101359633E1,1.165850601E1,-2.325264587E0,2.849025421E0,1.222475209E1
1.102366233E1,1.109537704E1,-1.985471191E0,2.955903168E0,1.165276152E1
1.103372833E1,1.064346680E1,-1.597478027E0,3.035537567E0,1.118256723E1
1.104379433E1,1.036295013E1,-1.257534943E0,3.046015778E0,1.087429730E1
1.105386033E1,1.022314087E1,-1.031804352E0,3.027005310E0,1.071167543E1
1.106392733E1,1.038525375E1,-1.052760773E0,2.982697449E0,1.085625556E1
1.107399333E1,1.081022003E1,-1.306034088E0,2.848127289E0,1.125515043E1
1.108405933E1,1.123728195E1,-1.803449707E0,2.668201447E0,1.168966362E1
1.109412533E1,1.157378220E1,-2.463876343E0,2.488574982E0,1.209198604E1
1.110419133E1,1.177915512E1,-3.067421265E0,2.366578674E0,1.239992997E1
1.111425833E1,1.171868088E1,-3.590283966E0,2.332898712E0,1.247637916E1
1.112432433E1,1.138143219E1,-3.876039734E0,2.390528870E0,1.225868309E1
1.113439033E1,1.089614136E1,-3.937861176E0,2.428400116E0,1.183764226E1
1.114445633E1,1.031385223E1,-3.849993896E0,2.500101013E0,1.128930937E1
1.115452233E1,9.854307861E0,-3.591182098E0,2.560126190E0,1.079621315E1
1.116458933E1,9.465416565E0,-3.252436523E0,2.564167786E0,1.033186385E1
1.117465533E1,9.115594025E0,-3.001408539E0,2.632874908E0,9.951609816E0
1.118472133E1,8.875044250E0,-2.856509857E0,2.876867523E0,9.757173041E0
1.119478733E1,8.621172180E0,-2.672692108E0,3.290158081E0,9.606926307E0
1.120485333E1,8.331524506E0,-2.463277588E0,3.636837158E0,9.418525446E0
1.121492033E1,7.984096985E0,-2.324815521E0,3.796704712E0,9.141418847E0
1.122498633E1,7.653584290E0,-2.146536255E0,3.724554749E0,8.778227523E0
1.123505233E1,7.523205414E0,-2.032024384E0,3.510499878E0,8.547008376E0
1.124511833E1,7.557633820E0,-2.053429871E0,3.286864929E0,8.493402395E0
1.125518433E1,7.679779816E0,-2.115251312E0,3.019520874E0,8.518850418E0
1.126525033E1,7.770940247E0,-2.205812988E0,2.679278412E0,8.510678943E0
1.127531733E1,7.667505341E0,-2.325563965E0,2.336042175E0,8.346015753E0
1.128538333E1,7.547305298E0,-2.421514435E0,1.995799713E0,8.173662943E0
1.129544933E1,7.470964050E0,-2.505489807E0,1.690285034E0,8.059146761E0
1.130551533E1,7.404352570E0,-2.570754089E0,1.401834869E0,7.962308369E0
1.131558133E1,7.388036499E0,-2.594404907E0,1.141376495E0,7.913075283E0
1.132564833E1,7.408543854E0,-2.579436035E0,9.918374634E-1,7.907196333E0
1.133571433E1,7.415429535E0,-2.601889343E0,9.201365662E-1,7.912336864E0
1.134578033E1,7.450157318E0,-2.615061951E0,8.722361755E-1,7.943814513E0
1.135584633E1,7.453600159E0,-2.589465179E0,8.896000671E-1,7.940583953E0
1.136591233E1,7.516768799E0,-2.576891327E0,9.397457886E-1,8.001581358E0
1.137597933E1,7.630681915E0,-2.531086578E0,1.029559021E0,8.105164868E0
1.138604533E1,7.734116821E0,-2.532583466E0,1.100212097E0,8.212247480E0
1.139611133E1,7.814948730E0,-2.500699768E0,1.192270660E0,8.291467441E0
1.140617733E1,7.859855347E0,-2.487976227E0,1.244212646E0,8.337590592E0
1.141624333E1,7.893385620E0,-2.472408600E0,1.290466461E0,8.371597489E0
1.142631033E1,7.830666046E0,-2.457140350E0,1.364263000E0,8.319740559E0
1.143637633E1,7.722441101E0,-2.458337860E0,1.443298645E0,8.231806155E0
1.144644233E1,7.642507324E0,-2.497705994E0,1.560654602E0,8.190366061E0
1.145650833E1,7.605833588E0,-2.540816345E0,1.678609314E0,8.192812795E0
1.146657758E1,7.568860474E0,-2.604134674E0,1.846410370E0,8.214523573E0
1.147664458E1,7.624993744E0,-2.713257751E0,1.981579285E0,8.332403836E0
1.148671058E1,7.766150208E0,-2.891387329E0,2.124831390E0,8.555005445E0
1.149677658E1,8.030350800E0,-3.094664612E0,2.246378632E0,8.894363383E0
1.150684258E1,8.385262756E0,-3.320694580E0,2.336640930E0,9.316626794E0
1.151690858E1,8.842412109E0,-3.598816223E0,2.356549530E0,9.833262724E0
1.152697458E1,9.369017029E0,-3.860621796E0,2.271676025E0,1.038476734E1
1.153704158E1,9.856852570E0,-4.105961609E0,2.162253571E0,1.089457681E1
1.154710758E1,1.019649628E1,-4.309687958E0,2.047442322E0,1.125761816E1
1.155717358E1,1.033885025E1,-4.443060608E0,1.950593719E0,1.142092062E1
1.156723958E1,1.045695465E1,-4.496200104E0,1.865420837E0,1.153444887E1
1.157730558E1,1.070229446E1,-4.584067383E0,1.808988190E0,1.178241142E1
1.158737258E1,1.104029160E1,-4.757855988E0,1.881437531E0,1.216819787E1
1.159743858E1,1.137933655E1,-4.968767395E0,1.928739166E0,1.256574647E1
1.160750458E1,1.171748337E1,-5.121000824E0,1.928589478E0,1.293226675E1
1.161757058E1,1.192390411E1,-5.202431488E0,1.944157104E0,1.315387888E1
1.162763658E1,1.214978439E1,-5.368286591E0,2.009720764E0,1.343408870E1
1.163770358E1,1.218735626E1,-5.394332428E0,2.057920532E0,1.348575218E1
1.164776958E1,1.188812851E1,-5.115013275E0,2.025587769E0,1.309938800E1
1.165783558E1,1.116498230E1,-4.425996094E0,1.892813873E0,1.215849561E1
1.166790158E1,1.035756134E1,-3.506158905E0,1.786983948E0,1.107996114E1
1.167796758E1,9.641300812E0,-2.588117981E0,1.798060913E0,1.014327655E1
1.168803458E1,9.102421417E0,-1.820813599E0,1.836081848E0,9.462591314E0
1.169810058E1,8.723708954E0,-1.218316498E0,1.864971771E0,9.003638859E0
1.170816658E1,8.609346771E0,-8.662486267E-1,1.884580994E0,8.855669598E0
1.171823258E1,8.736432495E0,-7.137158203E-1,1.883383484E0,8.965588456E0
1.172829858E1,9.079069977E0,-7.523355103E-1,1.894460449E0,9.305079299E0
1.173836558E1,9.603130188E0,-9.888436890E-1,1.907034302E0,9.840462442E0
1.174843158E1,9.960586853E0,-1.319356384E0,1.892813873E0,1.022432081E1
1.175849758E1,1.014185989E1,-1.695524139E0,1.799707489E0,1.043892098E1
1.176856358E1,1.019365219E1,-2.065704346E0,1.649719391E0,1.053087145E1
1.177862958E1,1.022344025E1,-2.388433228E0,1.522334290E0,1.060852702E1
1.178869658E1,1.025831772E1,-2.625540161E0,1.359472961E0,1.067589389E1
1.179876258E1,1.021520737E1,-2.757116547E0,1.281784515E0,1.065810137E1
1.180882858E1,1.019963974E1,-2.754721527E0,1.263821869E0,1.064041293E1
1.181889458E1,1.003019211E1,-2.606829071E0,1.328337708E0,1.044819566E1
1.182896058E1,9.749825134E0,-2.397863617E0,1.421294403E0,1.014045945E1
1.183902658E1,9.439670105E0,-2.195933533E0,1.498384094E0,9.806867526E0
1.184909358E1,9.115594025E0,-1.971699829E0,1.607357483E0,9.463892049E0
1.185915958E1,8.801696777E0,-1.791025543E0,1.756746826E0,9.152256447E0
1.186922558E1,8.470585327E0,-1.631906433E0,1.955832825E0,8.845293462E0
1.187929158E1,8.164172516E0,-1.489702148E0,2.217189331E0,8.590043882E0
1.188935758E1,7.943231964E0,-1.312470703E0,2.473755798E0,8.422409461E0
1.189942458E1,7.725734253E0,-1.156794434E0,2.694546661E0,8.263517702E0
1.190949058E1,7.599097595E0,-1.089733887E0,2.848875732E0,8.188400158E0
1.191955658E1,7.609875183E0,-1.057550812E0,2.917133789E0,8.218167896E0
1.192962258E1,7.735164642E0,-1.053060150E0,2.906655579E0,8.330087297E0
1.193968858E1,7.867190094E0,-1.114282837E0,2.783910828E0,8.419291283E0
1.194975558E1,7.925568695E0,-1.203796692E0,2.586770782E0,8.423487918E0
1.195982158E1,7.955656128E0,-1.271905060E0,2.315834198E0,8.382916852E0
1.196988758E1,7.982899475E0,-1.334025879E0,2.078427887E0,8.356205572E0
1.197995358E1,7.988737335E0,-1.320853271E0,1.880240021E0,8.312633765E0
1.199001958E1,8.048014069E0,-1.226549377E0,1.713636475E0,8.319345154E0
1.200008658E1,8.145162048E0,-1.174008636E0,1.641486511E0,8.391450354E0
1.201015258E1,8.309220886E0,-1.146166534E0,1.580114136E0,8.535432628E0
1.202021858E1,8.517288208E0,-1.118623810E0,1.560654602E0,8.731045781E0
1.203028458E1,8.694070587E0,-1.134490814E0,1.572779388E0,8.907725175E0
1.204035058E1,8.819210358E0,-1.167721710E0,1.591191101E0,9.037363246E0
1.205041758E1,8.917555847E0,-1.228944397E0,1.662143555E0,9.154006107E0
1.206048358E1,8.964558105E0,-1.239422607E0,1.785187683E0,9.224227094E0
1.207054958E1,8.964109039E0,-1.183139648E0,1.964664459E0,9.252836145E0
1.208061558E1,8.927734680E0,-1.082399139E0,2.098037109E0,9.234597670E0
1.209068158E1,8.958720245E0,-9.621990967E-1,2.222727814E0,9.280356376E0
1.210074858E1,9.103319550E0,-8.723858643E-1,2.258204041E0,9.419711748E0
1.211081458E1,9.214238892E0,-7.791297913E-1,2.239193573E0,9.514369629E0
1.212088058E1,9.448052673E0,-7.494914246E-1,2.191592560E0,9.727821681E0
1.213094658E1,9.750124512E0,-7.514373779E-1,2.039957886E0,9.989545250E0
1.214101258E1,9.937684479E0,-7.879614258E-1,1.914518738E0,1.015105108E1
1.215107858E1,1.016805542E1,-9.443861389E-1,1.748963013E0,1.036050616E1
1.216114558E1,1.034079620E1,-1.130149841E0,1.717678070E0,1.054323113E1
1.217121158E1,1.054586975E1,-1.413211212E0,1.768272858E0,1.078607082E1
1.218127758E1,1.073387878E1,-1.736838226E0,1.919907532E0,1.104168491E1
1.219134358E1,1.093865295E1,-2.023192749E0,2.094444580E0,1.131963495E1
1.220141058E1,1.111992599E1,-2.257904663E0,2.315534821E0,1.158069899E1
1.221147658E1,1.128458359E1,-2.433190155E0,2.521057434E0,1.181600489E1
1.222154258E1,1.142783569E1,-2.567011871E0,2.695893860E0,1.201885279E1
1.223160858E1,1.161809006E1,-2.622396698E0,2.852168884E0,1.224711592E1
1.224167458E1,1.199126404E1,-2.651136932E0,2.938688965E0,1.262754264E1
1.225174058E1,1.244107864E1,-2.739902344E0,3.015479279E0,1.309124203E1
1.226180758E1,1.279928375E1,-2.874173126E0,3.080893250E0,1.347495599E1
1.227187358E1,1.296229477E1,-2.935545502E0,3.106639709E0,1.364879934E1
1.228193958E1,1.297486862E1,-2.881507874E0,3.137924652E0,1.365638585E1
1.229200558E1,1.283281403E1,-2.768941956E0,3.163072357E0,1.350382102E1
1.230207158E1,1.253463409E1,-2.639461212E0,3.210224304E0,1.320565589E1
1.231213858E1,1.211924789E1,-2.482737122E0,3.245850220E0,1.278967149E1
1.232220458E1,1.169517975E1,-2.318977661E0,3.245251465E0,1.235663967E1
1.233227058E1,1.131616791E1,-2.167941742E0,3.216062164E0,1.196238619E1
1.234233658E1,1.096604599E1,-2.021695862E0,3.222349091E0,1.160710784E1
1.235240258E1,1.070932983E1,-1.928739166E0,3.215313721E0,1.134671858E1
1.236246958E1,1.056727524E1,-1.909579010E0,3.203039246E0,1.120594745E1
1.237253558E1,1.044782364E1,-1.934277649E0,3.133883057E0,1.107789113E1
1.238260158E1,1.039737854E1,-2.020049286E0,3.011886749E0,1.101170021E1
1.239266758E1,1.049781967E1,-2.223326569E0,2.890189819E0,1.111308220E1
1.240273358E1,1.065499283E1,-2.460732880E0,2.762056274E0,1.127887554E1
1.241280058E1,1.082459015E1,-2.706072693E0,2.627336426E0,1.146287390E1
1.242286658E1,1.093101883E1,-2.927612000E0,2.510130157E0,1.159132598E1
1.243293258E1,1.097966766E1,-3.128194885E0,2.457290039E0,1.167805547E1
1.244299858E1,1.094344299E1,-3.258274384E0,2.442770233E0,1.167657582E1
1.245306458E1,1.079330521E1,-3.301684113E0,2.454895020E0,1.155089022E1
1.246313158E1,1.054362442E1,-3.299139404E0,2.485730896E0,1.132392135E1
1.247319483E1,1.027717850E1,-3.247646484E0,2.586022339E0,1.108400276E1
1.248326083E1,9.997559967E0,-3.178340607E0,2.710563354E0,1.083513766E1
1.249332683E1,9.699080658E0,-3.075055389E0,2.806214447E0,1.055476057E1
1.250339283E1,9.371412048E0,-2.956352234E0,2.895877991E0,1.024448591E1
1.251345983E1,9.088051300E0,-2.863844604E0,2.937491455E0,9.971115203E0
1.252352583E1,8.781488800E0,-2.767894135E0,3.012036438E0,9.687525328E0
1.253359183E1,8.519832916E0,-2.685565338E0,3.011587372E0,9.427060656E0
1.254365783E1,8.246800690E0,-2.545456696E0,3.017275543E0,9.142922022E0
1.255372383E1,7.960446167E0,-2.437531128E0,2.953807526E0,8.833755717E0
1.256379083E1,7.810009003E0,-2.412982178E0,2.838397522E0,8.653047099E0
1.257385683E1,7.711064758E0,-2.397564240E0,2.655627594E0,8.500658322E0
1.258392283E1,7.585326233E0,-2.405797119E0,2.455194397E0,8.327845662E0
1.259398883E1,7.393425293E0,-2.404749298E0,2.279609528E0,8.101985951E0
1.260405483E1,7.233857117E0,-2.398911438E0,2.156415710E0,7.920454128E0
1.261412183E1,7.081324310E0,-2.400707703E0,2.083068237E0,7.761940785E0
1.262418783E1,7.025490417E0,-2.436183929E0,2.018103333E0,7.704884737E0
1.263425383E1,7.000791779E0,-2.480940857E0,1.975442047E0,7.685605008E0
1.264431983E1,7.021448822E0,-2.544408875E0,1.936223602E0,7.715161821E0
1.265438583E1,7.047494659E0,-2.594255219E0,1.890568542E0,7.744132652E0
1.266445283E1,7.063062286E0,-2.637964325E0,1.887724457E0,7.772336088E0
1.267451883E1,7.095095673E0,-2.690505066E0,1.876497803E0,7.816677307E0
1.268458483E1,7.103627930E0,-2.730172577E0,1.849254456E0,7.831673774E0
1.269465083E1,7.104675751E0,-2.747686157E0,1.831291809E0,7.834527837E0
1.270471683E1,7.184759216E0,-2.756517792E0,1.828597412E0,7.909672802E0
1.271478383E1,7.269333344E0,-2.758463745E0,1.845063171E0,7.991031698E0
1.272484983E1,7.387737122E0,-2.756368103E0,1.869013367E0,8.103668050E0
1.273491583E1,7.496411133E0,-2.735411682E0,1.867965546E0,8.195605665E0
1.274498183E1,7.601342926E0,-2.696342926E0,1.845063171E0,8.273749909E0
1.275504783E1,7.723937988E0,-2.661615143E0,1.819616089E0,8.369851607E0
1.276511383E1,7.846682739E0,-2.618953857E0,1.782493286E0,8.462070174E0
1.277518083E1,7.938142548E0,-2.609673157E0,1.778900757E0,8.543359351E0
1.278524683E1,7.999215546E0,-2.605481873E0,1.795665894E0,8.602348583E0
1.279531283E1,8.175997925E0,-2.611319733E0,1.815873871E0,8.772874713E0
1.280537883E1,8.416847076E0,-2.686762848E0,1.854493561E0,9.027799049E0
1.281544583E1,8.664432220E0,-2.757415924E0,1.859582977E0,9.280828472E0
1.282551183E1,9.081165619E0,-2.835104370E0,1.827998657E0,9.687464316E0
1.283557783E1,9.483678589E0,-3.000809784E0,1.735491028E0,1.009737332E1
1.284564383E1,9.854307861E0,-3.290607147E0,1.686542816E0,1.052520335E1
1.285570983E1,1.019065842E1,-3.652704163E0,1.669029236E0,1.095342071E1
1.286577683E1,1.044587769E1,-3.981420593E0,1.734293518E0,1.131264092E1
1.287584283E1,1.057431061E1,-4.218677216E0,1.881736908E0,1.153924677E1
1.288590883E1,1.056592804E1,-4.344266052E0,2.060764618E0,1.160854141E1
1.289597483E1,1.067579956E1,-4.446952515E0,2.326312408E0,1.179660173E1
1.290604083E1,1.091904373E1,-4.641398163E0,2.568808136E0,1.213947561E1
1.291610783E1,1.108983856E1,-4.865781555E0,2.747536469E0,1.241810397E1
1.292617383E1,1.127769791E1,-5.040318604E0,2.844834137E0,1.267613360E1
1.293623983E1,1.141990219E1,-5.106481018E0,2.835703125E0,1.282698432E1
1.294630583E1,1.148501678E1,-5.061724091E0,2.844235382E0,1.286920107E1
1.295637183E1,1.144280457E1,-4.881199493E0,2.799029388E0,1.275140974E1
1.296643783E1,1.122321121E1,-4.524341583E0,2.677332458E0,1.239347594E1
1.297650483E1,1.076261902E1,-3.968397675E0,2.476300507E0,1.173516989E1
1.298657083E1,1.019949005E1,-3.255579987E0,2.240241394E0,1.093833076E1
1.299663683E1,9.546847229E0,-2.487078094E0,2.028731232E0,1.007192136E1
1.300670283E1,8.968899078E0,-1.792073364E0,1.914668427E0,9.344443954E0
1.301676883E1,8.554261322E0,-1.231938171E0,1.858535156E0,8.840091139E0
1.302683583E1,8.383316803E0,-8.369096375E-1,1.850601654E0,8.625841689E0
1.303690183E1,8.476572876E0,-6.559359741E-1,1.855391693E0,8.702012299E0
1.304696783E1,8.724756775E0,-6.957531738E-1,1.865869904E0,8.949129777E0
1.305703383E1,9.096433868E0,-9.544152832E-1,1.902244263E0,9.342084933E0
1.306710083E1,9.484726410E0,-1.342707825E0,1.924098816E0,9.770622070E0
1.307716683E1,9.716743927E0,-1.774709473E0,1.913021851E0,1.006103170E1
1.308723283E1,9.868977356E0,-2.128573608E0,1.860181732E0,1.026585680E1
1.309729883E1,9.967921600E0,-2.367177429E0,1.788181458E0,1.040002803E1
1.310736483E1,9.978399811E0,-2.474354553E0,1.680704956E0,1.041708512E1
1.311743183E1,9.936636658E0,-2.451751556E0,1.568139038E0,1.035407619E1
1.312749783E1,9.866133270E0,-2.323767700E0,1.520837402E0,1.024955748E1
1.313756383E1,9.809550934E0,-2.150577850E0,1.475182343E0,1.015029249E1
1.314762983E1,9.739047546E0,-2.002984772E0,1.483864288E0,1.005300196E1
1.315769583E1,9.616602173E0,-1.845961304E0,1.557511139E0,9.915263558E0
1.316776183E1,9.447004852E0,-1.726360016E0,1.640738068E0,9.742599293E0
1.317782883E1,9.270521851E0,-1.584305420E0,1.737436981E0,9.564062228E0
1.318789483E1,9.109756165E0,-1.493444366E0,1.838177490E0,9.412594219E0
1.319796083E1,8.925788727E0,-1.398990784E0,1.908381500E0,9.234110653E0
1.320802683E1,8.771160278E0,-1.337768097E0,1.950893097E0,9.084539613E0
1.321809383E1,8.658294983E0,-1.269360352E0,1.954335938E0,8.966424966E0
1.322815983E1,8.555009766E0,-1.224902802E0,1.918710022E0,8.852684740E0
1.323822583E1,8.515941010E0,-1.181044006E0,1.827399902E0,8.789511171E0
1.324829183E1,8.486452332E0,-1.210832062E0,1.721270599E0,8.743498152E0
1.325835783E1,8.431366882E0,-1.261875916E0,1.639540558E0,8.681495929E0
1.326842483E1,8.433462524E0,-1.318458252E0,1.558409271E0,8.676996126E0
1.327849083E1,8.488547974E0,-1.401834869E0,1.446442108E0,8.724264008E0
1.328855683E1,8.577912140E0,-1.525477753E0,1.364562378E0,8.818712465E0
1.329862283E1,8.722511444E0,-1.607656860E0,1.318308563E0,8.966867008E0
1.330868883E1,8.802744598E0,-1.672322388E0,1.325194244E0,9.057655018E0
1.331875583E1,8.860524445E0,-1.734293518E0,1.390159149E0,9.135053908E0
1.332882183E1,8.939560089E0,-1.747765503E0,1.514550476E0,9.233866037E0
1.333888783E1,8.984915771E0,-1.733395386E0,1.669178925E0,9.301587459E0
1.334895383E1,8.998687134E0,-1.669328613E0,1.859732666E0,9.339252312E0
1.335901983E1,8.934021606E0,-1.592837677E0,2.044298859E0,9.302313247E0
1.336908583E1,8.925938416E0,-1.491199036E0,2.180365906E0,9.308600681E0
1.337915283E1,8.977581024E0,-1.400337982E0,2.302212524E0,9.373264640E0
1.338921883E1,9.065148926E0,-1.334474945E0,2.364033966E0,9.462896228E0
1.339928483E1,9.177116089E0,-1.270707550E0,2.348915405E0,9.557801053E0
1.340935083E1,9.345815277E0,-1.238075409E0,2.279908905E0,9.699230821E0
1.341941783E1,9.528435516E0,-1.243464203E0,2.175276489E0,9.852365930E0
1.342948383E1,9.606123962E0,-1.294957123E0,2.049537964E0,9.907327460E0
1.343954983E1,9.570797424E0,-1.366208954E0,1.897005157E0,9.852173304E0
1.344961583E1,9.364975433E0,-1.436562653E0,1.803898773E0,9.644715025E0
1.345968183E1,9.109007721E0,-1.525627441E0,1.718576202E0,9.394416688E0
1.346974850E1,8.915011139E0,-1.683399353E0,1.729653168E0,9.235959997E0
1.347981450E1,8.792865143E0,-1.914219360E0,1.770518188E0,9.171338388E0
1.348988050E1,8.705446930E0,-2.143243103E0,1.836830292E0,9.151625144E0
1.349994650E1,8.741372223E0,-2.353406067E0,1.927990723E0,9.255660791E0
1.351001250E1,8.883277130E0,-2.589165802E0,2.047891388E0,9.476827067E0
1.352007950E1,9.148675232E0,-2.782264252E0,2.136058044E0,9.798060871E0
1.353014550E1,9.419312439E0,-3.003803558E0,2.203717346E0,1.012929676E1
1.354021150E1,9.751771088E0,-3.206482086E0,2.223476257E0,1.050344769E1
1.355027750E1,1.019514908E1,-3.388952637E0,2.257455597E0,1.097825899E1
1.356034350E1,1.058778259E1,-3.495680695E0,2.306852875E0,1.138606578E1
1.357041050E1,1.093506042E1,-3.495531006E0,2.398013306E0,1.172794745E1
1.358047650E1,1.121872055E1,-3.375929718E0,2.517913971E0,1.198317500E1
1.359054250E1,1.149459686E1,-3.246748352E0,2.686313782E0,1.224268817E1
1.360060850E1,1.167871399E1,-3.207679596E0,2.838247833E0,1.243934161E1
1.361067450E1,1.172332123E1,-3.228636017E0,2.954855347E0,1.251365339E1
1.362074150E1,1.173439819E1,-3.237767029E0,3.064128113E0,1.255261397E1
1.363080750E1,1.175086395E1,-3.146456909E0,3.149600372E0,1.256594514E1
1.364087350E1,1.182810333E1,-3.038231964E0,3.238066406E0,1.263407915E1
1.365093950E1,1.182316360E1,-2.924169159E0,3.316054230E0,1.262276430E1
1.366100550E1,1.155596924E1,-2.784808960E0,3.388054504E0,1.236019819E1
1.367107250E1,1.105915237E1,-2.555186462E0,3.390150146E0,1.184596755E1
1.368113850E1,1.053928345E1,-2.192790070E0,3.364104309E0,1.127838737E1
1.369120450E1,1.010294083E1,-1.814975739E0,3.359763336E0,1.080053517E1
1.370127050E1,9.852661285E0,-1.507066040E0,3.352727966E0,1.051603382E1
1.371133650E1,9.897418213E0,-1.354233856E0,3.378324738E0,1.054542150E1
1.372140350E1,1.014679962E1,-1.420396271E0,3.268602905E0,1.075447967E1
1.373146950E1,1.048434769E1,-1.689686279E0,3.041974182E0,1.104672771E1
1.374153550E1,1.076097244E1,-2.081721039E0,2.792143707E0,1.131053301E1
1.375160150E1,1.101229980E1,-2.534230042E0,2.530338135E0,1.157996891E1
1.376166750E1,1.112321915E1,-2.890638885E0,2.362836456E0,1.173306411E1
1.377173450E1,1.105750580E1,-3.173700256E0,2.245330811E0,1.172102036E1
1.378180050E1,1.084255280E1,-3.373235321E0,2.240241394E0,1.157403772E1
1.379186650E1,1.043809387E1,-3.395239563E0,2.302362213E0,1.121527205E1
1.380193250E1,1.000235001E1,-3.281326447E0,2.452949066E0,1.080884212E1
1.381199850E1,9.683063965E0,-3.074456635E0,2.731070709E0,1.052011210E1
1.382206550E1,9.533674622E0,-2.780617676E0,3.050356750E0,1.038881431E1
1.383213150E1,9.373507690E0,-2.503992920E0,3.362008667E0,1.026819016E1
1.384219750E1,9.169032898E0,-2.304906921E0,3.670666809E0,1.014187138E1
1.385226350E1,8.972042542E0,-2.174827423E0,3.897445221E0,1.002085330E1
1.386232950E1,8.769962769E0,-2.070793762E0,4.054768066E0,9.881375301E0
1.387239650E1,8.557853851E0,-2.002535706E0,4.169279938E0,9.727790448E0
1.388246250E1,8.130941620E0,-1.979184265E0,4.250111847E0,9.385778215E0
1.389252850E1,7.787256317E0,-2.004781036E0,4.170178070E0,9.058194803E0
1.390259450E1,7.664212189E0,-2.166594543E0,4.100572815E0,8.958179380E0
1.391266050E1,7.769143982E0,-2.455793152E0,4.044888611E0,9.096792956E0
1.392272750E1,7.933801575E0,-2.756218414E0,3.953877869E0,9.283054324E0
1.393279350E1,8.018974457E0,-3.031945038E0,3.871100006E0,9.406490169E0
1.394285950E1,8.006849670E0,-3.144810333E0,3.741768951E0,9.380847966E0
1.395292550E1,7.995922394E0,-3.137924652E0,3.593427429E0,9.310964866E0
1.396299150E1,7.992030487E0,-3.053799591E0,3.441643066E0,9.221884311E0
1.397305850E1,7.956404572E0,-2.912643127E0,3.297642517E0,9.091881536E0
1.398312450E1,7.943531342E0,-2.774031372E0,3.170107727E0,8.991358253E0
1.399319050E1,7.999514923E0,-2.698887634E0,3.070415039E0,8.983522805E0
1.400325650E1,8.115523682E0,-2.759960632E0,2.967429199E0,9.071093835E0
1.401332350E1,8.269104309E0,-2.819237366E0,2.860701141E0,9.192920995E0
1.402338950E1,8.394992523E0,-2.902164917E0,2.771037598E0,9.304682157E0
1.403345550E1,8.490344238E0,-2.987188110E0,2.709515533E0,9.399505972E0
1.404352150E1,8.500223694E0,-3.106789398E0,2.632725220E0,9.425348020E0
1.405358750E1,8.405321045E0,-3.145558777E0,2.542612610E0,9.327852956E0
1.406365450E1,8.207282867E0,-3.131488037E0,2.428100739E0,9.113801764E0
1.407372050E1,8.033494263E0,-3.030897217E0,2.339485016E0,8.899244808E0
1.408378650E1,7.853418732E0,-2.871478729E0,2.280657349E0,8.667351026E0
1.409385250E1,7.792944489E0,-2.707419891E0,2.276466064E0,8.558177610E0
1.410391850E1,7.923473053E0,-2.599045258E0,2.316882019E0,8.654733027E0
1.411398550E1,8.056546326E0,-2.561473389E0,2.421664124E0,8.793949155E0
1.412405150E1,8.280330963E0,-2.612367554E0,2.467319183E0,9.026406209E0
1.413411750E1,8.547675018E0,-2.749931488E0,2.557431793E0,9.336237400E0
1.414418350E1,8.788524170E0,-2.951861572E0,2.591860199E0,9.626493812E0
1.415424950E1,9.046886902E0,-3.204386444E0,2.602338409E0,9.944165138E0
1.416431650E1,9.282496948E0,-3.461252289E0,2.592009888E0,1.024028966E1
1.417438250E1,9.574090576E0,-3.745960236E0,2.563269653E0,1.059555472E1
1.418444850E1,9.919272766E0,-4.000730438E0,2.563269653E0,1.099855298E1
1.419451450E1,1.016595978E1,-4.192781067E0,2.543061676E0,1.128686467E1
1.420458050E1,1.033810181E1,-4.346212006E0,2.493215332E0,1.148834324E1
1.421464750E1,1.039169037E1,-4.415218506E0,2.399510193E0,1.154292131E1
1.422471350E1,1.042357407E1,-4.405638428E0,2.310295715E0,1.154980574E1
1.423477950E1,1.056952057E1,-4.380640411E0,2.255210266E0,1.166150714E1
1.424484550E1,1.077414505E1,-4.483326874E0,2.276466064E0,1.188968962E1
1.425491150E1,1.099987564E1,-4.673281860E0,2.352957001E0,1.218085523E1
1.426497850E1,1.103026245E1,-4.899311829E0,2.430645447E0,1.231170108E1
1.427504450E1,1.097233292E1,-5.018464050E0,2.500699768E0,1.232195481E1
1.428511050E1,1.076501404E1,-4.936284943E0,2.556084595E0,1.211552742E1
1.429517650E1,1.033885025E1,-4.699178009E0,2.576741638E0,1.164532936E1
1.430524250E1,9.905202026E0,-4.460723877E0,2.543660431E0,1.115711849E1
1.431530950E1,9.371262360E0,-4.022884369E0,2.445764008E0,1.048741715E1
1.432537550E1,8.799900513E0,-3.391946411E0,2.259700928E0,9.697927499E0
1.433544150E1,8.306975555E0,-2.757715302E0,2.067500610E0,8.993630821E0
1.434550750E1,8.061336365E0,-2.263293457E0,1.897454224E0,8.585334809E0
1.435557350E1,8.086484070E0,-1.923350372E0,1.748364258E0,8.493955430E0
1.436564050E1,8.158634033E0,-1.738634491E0,1.653012543E0,8.504034904E0
1.437570650E1,8.286019135E0,-1.710792389E0,1.529968414E0,8.598007155E0
1.438577250E1,8.500672760E0,-1.856589203E0,1.411714325E0,8.814833985E0
1.439583850E1,8.763526154E0,-2.118694153E0,1.284927979E0,9.107101376E0
1.440590550E1,8.980425110E0,-2.495460663E0,1.247505798E0,9.403809323E0
1.441597150E1,9.202114105E0,-2.914289703E0,1.192420349E0,9.725937218E0
1.442603750E1,9.453890533E0,-3.258274384E0,1.195713501E0,1.007085542E1
1.443610350E1,9.635313263E0,-3.537593536E0,1.207838287E0,1.033502313E1
1.444616950E1,9.804910583E0,-3.761527863E0,1.161734161E0,1.056574605E1
1.445623550E1,9.863738251E0,-3.842509460E0,1.127754822E0,1.064565837E1
1.446630250E1,9.741442566E0,-3.806284790E0,1.076411591E0,1.051390361E1
1.447636908E1,9.455986176E0,-3.597169647E0,1.007704468E0,1.016714180E1
1.448643508E1,9.102571106E0,-3.277284851E0,9.873468018E-1,9.724826499E0
1.449650108E1,8.744665375E0,-2.947819977E0,1.018482056E0,9.284186600E0
1.450656808E1,8.474028168E0,-2.627635803E0,1.132993927E0,8.944120893E0
1.451663408E1,8.341254272E0,-2.395318909E0,1.281634827E0,8.772494705E0
1.452670008E1,8.261470184E0,-2.227068787E0,1.467099152E0,8.681250193E0
1.453676608E1,8.197104034E0,-2.035317535E0,1.600920868E0,8.596393409E0
1.454683208E1,8.107590179E0,-1.823058929E0,1.716779938E0,8.485510929E0
1.455689908E1,8.102500763E0,-1.614841919E0,1.711241455E0,8.437214016E0
1.456696508E1,8.227640533E0,-1.520837402E0,1.737586670E0,8.545538168E0
1.457703108E1,8.190966797E0,-1.595681763E0,1.835932159E0,8.544517789E0
1.458709708E1,8.171058197E0,-1.644779663E0,1.937720490E0,8.557233951E0
1.459716308E1,8.375383301E0,-1.611997833E0,2.021995239E0,8.765503248E0
1.460723008E1,8.515641632E0,-1.635798340E0,1.984423370E0,8.895500252E0
1.461729608E1,8.561596069E0,-1.744622040E0,1.869462433E0,8.935296475E0
1.462736208E1,8.608149261E0,-1.887574768E0,1.716779938E0,8.978335345E0
1.463742808E1,8.599167938E0,-1.990261230E0,1.544787598E0,8.960647171E0
1.464749408E1,8.588540039E0,-1.988914032E0,1.413809967E0,8.928474542E0
1.465756108E1,8.588689728E0,-1.931732941E0,1.341809692E0,8.904922046E0
1.466762708E1,8.609795837E0,-1.867067413E0,1.361568604E0,8.914504706E0
1.467769308E1,8.641529846E0,-1.738784180E0,1.439855804E0,8.931550439E0
1.468775908E1,8.664282532E0,-1.600621490E0,1.564396820E0,8.948693668E0
1.469782508E1,8.715027008E0,-1.495989075E0,1.719624023E0,9.008151078E0
1.470789208E1,8.814270630E0,-1.441352692E0,1.876647491E0,9.126372232E0
1.471795808E1,8.905131683E0,-1.415606232E0,2.006128235E0,9.237416403E0
1.472802408E1,8.982371063E0,-1.367406464E0,2.117197266E0,9.329271923E0
1.473809008E1,9.026978302E0,-1.354832611E0,2.181713104E0,9.385189435E0
1.474815708E1,9.057065735E0,-1.290466461E0,2.186203766E0,9.406127275E0
1.475822308E1,9.082812195E0,-1.204844513E0,2.215842133E0,9.426509642E0
1.476828908E1,9.200317841E0,-1.099463654E0,2.190395050E0,9.521160600E0
1.477835508E1,9.375603333E0,-9.922865295E-1,2.136507111E0,9.667017794E0
1.478842108E1,9.618697815E0,-9.128018188E-1,2.103126526E0,9.888159384E0
1.479848808E1,9.998757477E0,-9.247769165E-1,2.036515045E0,1.024586536E1
1.480855408E1,1.036983582E1,-1.002914429E0,1.944007416E0,1.059804213E1
1.481862008E1,1.071561676E1,-1.126257935E0,1.873504028E0,1.093631185E1
1.482868608E1,1.099239120E1,-1.271006927E0,1.777553558E0,1.120748945E1
1.483875208E1,1.118474121E1,-1.452429657E0,1.704056396E0,1.140665578E1
1.484881908E1,1.134865036E1,-1.607656860E0,1.678459625E0,1.158419839E1
1.485888508E1,1.155671768E1,-1.773062897E0,1.727258148E0,1.181883650E1
1.486895108E1,1.172751251E1,-1.930086365E0,1.844913483E0,1.202761360E1
1.487901708E1,1.187570435E1,-2.060465240E0,2.027982788E0,1.222254413E1
1.488908308E1,1.196387100E1,-2.158062286E0,2.217488708E0,1.235753610E1
1.489915008E1,1.215846634E1,-2.255809021E0,2.440075836E0,1.260440194E1
1.490921608E1,1.251053421E1,-2.396366730E0,2.640509033E0,1.300877887E1
1.491928208E1,1.290466461E1,-2.630928955E0,2.822081451E0,1.346908681E1
1.492934808E1,1.319012100E1,-2.855162659E0,2.956501923E0,1.381564872E1
1.493941408E1,1.330912354E1,-2.959346008E0,3.086880798E0,1.397924644E1
1.494948108E1,1.319476135E1,-2.901117096E0,3.135080566E0,1.386891985E1
1.495954708E1,1.297846115E1,-2.748135223E0,3.134332123E0,1.363146136E1
1.496961308E1,1.264944534E1,-2.616558838E0,3.124602356E0,1.328977003E1
1.497967908E1,1.215846634E1,-2.475701752E0,3.060984650E0,1.277994640E1
1.498974508E1,1.168305496E1,-2.307152252E0,3.005150757E0,1.228200537E1
1.499981208E1,1.117291580E1,-2.104473724E0,2.986289978E0,1.175503233E1
1.500987808E1,1.064825684E1,-1.890269165E0,2.971171417E0,1.121545143E1
1.501994408E1,1.020981857E1,-1.690883789E0,2.989882507E0,1.077213445E1
1.503001008E1,9.949809265E0,-1.570983124E0,3.010090485E0,1.051319823E1
1.504007608E1,9.888436890E0,-1.579814758E0,3.033292236E0,1.046316685E1
1.505014308E1,9.960586853E0,-1.675316162E0,3.044369202E0,1.054932029E1
1.506020908E1,1.028870453E1,-1.917063446E0,2.972668304E0,1.087976700E1
1.507027508E1,1.059167450E1,-2.239942017E0,2.888992310E0,1.120478405E1
1.508034108E1,1.078597046E1,-2.607577515E0,2.782863007E0,1.144032105E1
1.509040808E1,1.088760910E1,-2.943628693E0,2.688708801E0,1.159457359E1
1.510047408E1,1.083866089E1,-3.174448700E0,2.643951874E0,1.159931791E1
1.511054008E1,1.071591614E1,-3.330124969E0,2.649939423E0,1.153008109E1
1.512060608E1,1.057475967E1,-3.383414154E0,2.652035065E0,1.141517952E1
1.513067208E1,1.036893768E1,-3.367247772E0,2.610571289E0,1.121018772E1
1.514073908E1,1.013452515E1,-3.330723724E0,2.504891052E0,1.095795600E1
1.515080508E1,9.964778137E0,-3.272045746E0,2.390079803E0,1.075711709E1
1.516087108E1,9.816137238E0,-3.217559052E0,2.258204041E0,1.057396435E1
1.517093708E1,9.667346649E0,-3.139271851E0,2.146386566E0,1.038843560E1
1.518100308E1,9.507030029E0,-3.077749786E0,2.081870728E0,1.020736741E1
1.519107008E1,9.318571930E0,-2.985840912E0,2.076182556E0,1.000307766E1
1.520113608E1,9.153016205E0,-2.907404022E0,2.119592285E0,9.834804281E0
1.521120208E1,9.003626862E0,-2.836451569E0,2.257904663E0,9.706126294E0
1.522126808E1,8.821755066E0,-2.735261993E0,2.400258636E0,9.542864462E0
1.523133408E1,8.607849884E0,-2.637215881E0,2.478695526E0,9.337768403E0
1.524140108E1,8.418493652E0,-2.536774750E0,2.526446228E0,9.148179712E0
1.525146708E1,8.206235046E0,-2.459535370E0,2.578537903E0,8.946533719E0
1.526153308E1,8.025411072E0,-2.417173462E0,2.510579224E0,8.749454752E0
1.527159908E1,7.804171143E0,-2.403402100E0,2.491718445E0,8.537569308E0
1.528166508E1,7.710615692E0,-2.456242218E0,2.434986420E0,8.450791623E0
1.529173208E1,7.717201996E0,-2.550845490E0,2.359842682E0,8.463502634E0
1.530179808E1,7.723039856E0,-2.647394714E0,2.270179138E0,8.473945758E0
1.531186408E1,7.743247833E0,-2.735561371E0,2.191143494E0,8.499546625E0
1.532193008E1,7.782615967E0,-2.807561646E0,2.167941742E0,8.552864145E0
1.533199708E1,7.827821960E0,-2.886148224E0,2.100731506E0,8.603355222E0
1.534206308E1,7.843838654E0,-2.923420715E0,2.057022400E0,8.619949806E0
1.535212908E1,7.841593323E0,-2.956950989E0,2.027982788E0,8.622462478E0
1.536219508E1,7.852819977E0,-2.955753479E0,2.007176056E0,8.627399141E0
1.537226108E1,7.897127838E0,-2.974464569E0,2.001787262E0,8.672901464E0
1.538232808E1,7.906408539E0,-3.031046906E0,1.983974304E0,8.696820992E0
1.539239408E1,7.843838654E0,-3.042273560E0,1.995949402E0,8.646678394E0
1.540246008E1,7.804769897E0,-3.014281769E0,1.991309052E0,8.600327870E0
1.541252608E1,7.656578064E0,-2.961291962E0,2.037562866E0,8.458374558E0
1.542259208E1,7.560777283E0,-2.896327057E0,2.041305084E0,8.349909580E0
1.543265908E1,7.517217865E0,-2.846630402E0,2.103874969E0,8.308920445E0
1.544272508E1,7.535330200E0,-2.851270752E0,2.130220184E0,8.333593712E0
1.545279108E1,7.520361328E0,-2.919528809E0,2.198927307E0,8.361504905E0
1.546285708E1,7.597451019E0,-3.023562469E0,2.201621704E0,8.468195211E0
1.547292258E1,7.623047791E0,-3.083737335E0,2.233954468E0,8.521199806E0
1.548298958E1,7.683222656E0,-3.190166016E0,2.249222717E0,8.617892574E0
1.549305558E1,7.910001068E0,-3.308420105E0,2.248174896E0,8.863862073E0
1.550312158E1,8.164471893E0,-3.470682678E0,2.217788086E0,9.144551577E0
1.551318758E1,8.563991089E0,-3.646417236E0,2.142794037E0,9.551432789E0
1.552325358E1,8.983718262E0,-3.866309967E0,2.106569366E0,1.000465797E1
1.553332058E1,9.296268311E0,-4.047583008E0,2.071691895E0,1.034869267E1
1.554338658E1,9.505982208E0,-4.205803986E0,2.079326019E0,1.060075854E1
1.555345258E1,9.585317230E0,-4.248315582E0,2.159708862E0,1.070471083E1
1.556351858E1,9.536668396E0,-4.214036865E0,2.235601044E0,1.066321072E1
1.557358558E1,9.372160492E0,-4.093986511E0,2.238295441E0,1.046938796E1
1.558365158E1,9.392967224E0,-3.980073395E0,2.191592560E0,1.043416961E1
1.559371758E1,9.870174866E0,-4.039799194E0,2.111060028E0,1.087183995E1
1.560378358E1,1.053344559E1,-4.340074768E0,1.995949402E0,1.156605114E1
1.561384958E1,1.106918152E1,-4.655618591E0,1.855840759E0,1.215095506E1
1.562391658E1,1.131871262E1,-4.810995483E0,1.697170715E0,1.241528579E1
1.563398258E1,1.131227600E1,-4.703069916E0,1.454225922E0,1.233698618E1
1.564404858E1,1.097008759E1,-4.394411774E0,1.208437042E0,1.187914124E1
1.565411458E1,1.045934967E1,-3.953279114E0,1.003363495E0,1.122644866E1
1.566418058E1,9.895172882E0,-3.466641083E0,8.711883545E-1,1.052097980E1
1.567424758E1,9.417815552E0,-3.018922119E0,8.563691711E-1,9.926857946E0
1.568431358E1,9.054371338E0,-2.553240509E0,1.039737854E0,9.464762661E0
1.569437958E1,8.856632538E0,-2.166145477E0,1.315464478E0,9.212088413E0
1.570444558E1,8.831634521E0,-1.907782745E0,1.657054138E0,9.186034604E0
1.571451158E1,8.941805420E0,-1.823957062E0,2.039209442E0,9.350993460E0
1.572457858E1,9.166787567E0,-1.878593445E0,2.403102722E0,9.660952868E0
1.573464458E1,9.588610382E0,-2.064656525E0,2.691403198E0,1.017093441E1
1.574471058E1,1.004650818E1,-2.370769958E0,2.957100677E0,1.073765902E1
1.575477658E1,1.045246399E1,-2.787503357E0,3.188968506E0,1.127801838E1
1.576484258E1,1.072744217E1,-3.194506989E0,3.330424347E0,1.167795430E1
1.577490958E1,1.089209976E1,-3.421285400E0,3.321592712E0,1.189016439E1
1.578497558E1,1.088416626E1,-3.517535248E0,3.172951813E0,1.187037289E1
1.579504158E1,1.080333435E1,-3.410657501E0,2.995870056E0,1.171835548E1
1.580510758E1,1.069780380E1,-3.124602356E0,2.798430634E0,1.149075107E1
1.581517458E1,1.050859726E1,-2.688409424E0,2.677781525E0,1.117267540E1
1.582524058E1,1.035905823E1,-2.266287231E0,2.606529694E0,1.091971347E1
1.583530658E1,1.023376877E1,-1.890568542E0,2.535726929E0,1.071140437E1
1.584537258E1,9.999505920E0,-1.571581879E0,2.470312958E0,1.041932984E1
1.585543858E1,9.756411438E0,-1.269959106E0,2.379451904E0,1.012235900E1
1.586550558E1,9.499695282E0,-1.009201355E0,2.270478516E0,9.819255090E0
1.587557158E1,9.255552979E0,-7.969427490E-1,2.169438629E0,9.539750660E0
1.588563758E1,9.035061493E0,-6.544390869E-1,2.108964386E0,9.300986909E0
1.589570358E1,8.931476898E0,-5.707630920E-1,2.013163605E0,9.173324250E0
1.590576958E1,8.850195923E0,-5.269042969E-1,1.927242279E0,9.072918980E0
1.591583658E1,8.828940125E0,-5.354365540E-1,1.786235504E0,9.023719483E0
1.592590258E1,8.863817596E0,-5.870791626E-1,1.661395111E0,9.037264965E0
1.593596858E1,8.884175262E0,-6.385720825E-1,1.532213745E0,9.037921407E0
1.594603458E1,8.884624329E0,-6.875202942E-1,1.399589539E0,9.020425960E0
1.595610058E1,8.904532928E0,-7.238946533E-1,1.256936188E0,9.021896626E0
1.596616758E1,8.895701294E0,-7.494914246E-1,1.152902527E0,9.001356739E0
1.597623358E1,8.820707245E0,-8.078700256E-1,1.084943848E0,8.923823924E0
1.598629958E1,8.769364014E0,-8.559201050E-1,1.059646454E0,8.874525060E0
1.599636558E1,8.749156036E0,-8.903485107E-1,1.052760773E0,8.857130295E0
1.600643158E1,8.747659149E0,-9.488768005E-1,1.123114471E0,8.870360415E0
1.601649858E1,8.755442963E0,-9.816586304E-1,1.260977783E0,8.900084275E0
1.602656458E1,8.843908997E0,-1.000519409E0,1.457369385E0,9.018851975E0
1.603663058E1,8.975036316E0,-1.063238983E0,1.670975189E0,9.190969051E0
1.604669658E1,9.113049316E0,-1.094074860E0,1.859582977E0,9.364972851E0
1.605676358E1,9.162147217E0,-1.105900269E0,2.034868469E0,9.450325217E0
1.606682958E1,9.168733521E0,-1.080004120E0,2.157313843E0,9.480827300E0
1.607689558E1,9.195827179E0,-1.019978943E0,2.215243378E0,9.513721552E0
1.608696158E1,9.229207764E0,-9.187893677E-1,2.199975128E0,9.532173960E0
1.609702758E1,9.225315857E0,-8.436456299E-1,2.170187073E0,9.514615207E0
1.610709458E1,9.277108154E0,-7.622149658E-1,2.091301117E0,9.540400816E0
1.611716058E1,9.361682281E0,-6.944059753E-1,1.999990997E0,9.598086204E0
1.612722658E1,9.453740845E0,-6.918612671E-1,1.928439789E0,9.673198436E0
1.613729258E1,9.577832794E0,-7.279362488E-1,1.860481110E0,9.783974764E0
1.614735858E1,9.745783539E0,-8.547225952E-1,1.811532898E0,9.949497422E0
1.615742558E1,9.960886230E0,-1.072220306E0,1.811981964E0,1.018097193E1
1.616749158E1,1.027897476E1,-1.362167358E0,1.887425079E0,1.053922177E1
1.617755758E1,1.064421524E1,-1.660347290E0,1.960473175E0,1.094986421E1
1.618762358E1,1.102652023E1,-1.975591736E0,2.061662750E0,1.139023988E1
1.619768958E1,1.144040955E1,-2.215093689E0,2.117197266E0,1.184365378E1
1.620775658E1,1.169009033E1,-2.339335327E0,2.241738281E0,1.213079108E1
1.621782258E1,1.199829941E1,-2.390229492E0,2.353555756E0,1.245839518E1
1.622788858E1,1.218855377E1,-2.275118866E0,2.530038757E0,1.265456854E1
1.623795458E1,1.241847565E1,-2.183659058E0,2.675236816E0,1.288967790E1
1.624802158E1,1.286020706E1,-2.281256104E0,2.770738220E0,1.335163081E1
1.625808758E1,1.325598404E1,-2.517614594E0,2.882555695E0,1.379741365E1
1.626815358E1,1.348111588E1,-2.750230865E0,2.885699158E0,1.405814763E1
1.627821958E1,1.330148941E1,-2.833607483E0,2.907104645E0,1.390719991E1
1.628828558E1,1.287068527E1,-2.663860474E0,2.998115387E0,1.348107517E1
1.629835258E1,1.222148529E1,-2.334096222E0,3.141666870E0,1.283287881E1
1.630841858E1,1.152243896E1,-1.931433563E0,3.285966797E0,1.213649921E1
1.631848458E1,1.094913116E1,-1.640438690E0,3.300486603E0,1.155282321E1
1.632855058E1,1.053449341E1,-1.434017944E0,3.242557068E0,1.111513091E1
1.633861658E1,1.030876282E1,-1.351240082E0,3.126997375E0,1.085700480E1
1.634868358E1,1.022942780E1,-1.429527283E0,2.944227448E0,1.074026147E1
1.635874958E1,1.020951920E1,-1.650916901E0,2.753973083E0,1.070253132E1
1.636881558E1,1.021341110E1,-1.962718506E0,2.673889618E0,1.073851554E1
1.637888158E1,1.029439270E1,-2.271226959E0,2.741698608E0,1.089265368E1
1.638894758E1,1.043375290E1,-2.609673157E0,2.853067017E0,1.112715529E1
1.639901458E1,1.059975769E1,-2.967129822E0,2.904559937E0,1.138398836E1
1.640908058E1,1.077998291E1,-3.317401428E0,2.806663513E0,1.162284577E1
1.641914658E1,1.105106918E1,-3.657194824E0,2.727927246E0,1.195586848E1
1.642921258E1,1.129850464E1,-3.926185455E0,2.664608917E0,1.225443919E1
1.643927958E1,1.141122025E1,-4.047433319E0,2.576591949E0,1.237887273E1
1.644934558E1,1.131736542E1,-3.911665649E0,2.616708527E0,1.225687773E1
1.645941158E1,1.110121490E1,-3.560196533E0,2.644550629E0,1.195431386E1
1.646947758E1,1.065394501E1,-3.138224030E0,2.583777008E0,1.140310913E1
1.647954300E1,1.013198044E1,-2.748135223E0,2.507735138E0,1.079342440E1
1.648961000E1,9.754315796E0,-2.479294281E0,2.396217041E0,1.034579300E1
1.649967600E1,9.498497772E0,-2.313738556E0,2.335293732E0,1.005129061E1
1.650974200E1,9.327852631E0,-2.222428436E0,2.347717896E0,9.872173123E0
1.651980800E1,9.208850098E0,-2.128723297E0,2.507735138E0,9.778707405E0
1.652987400E1,9.164691925E0,-2.068847809E0,2.687211914E0,9.772042632E0
1.653994100E1,9.157357178E0,-2.047292633E0,2.846031647E0,9.805533832E0
1.655000700E1,9.148076477E0,-2.047292633E0,2.833158417E0,9.793135196E0
1.656007300E1,9.112001495E0,-2.166594543E0,2.676883392E0,9.741068107E0
1.657013900E1,8.968749390E0,-2.313439178E0,2.494263153E0,9.592278933E0
1.658020500E1,8.736731873E0,-2.423161011E0,2.309996338E0,9.356189191E0
1.659027200E1,8.531957703E0,-2.478096771E0,2.098486176E0,9.129014737E0
1.660033800E1,8.346942444E0,-2.545456696E0,1.881138153E0,8.926896364E0
1.661040400E1,8.177195435E0,-2.622995453E0,1.622625732E0,8.739539152E0
1.662047000E1,8.047115936E0,-2.740501099E0,1.381477203E0,8.612485148E0
1.663053700E1,8.016729126E0,-2.901865540E0,1.130000153E0,8.600329635E0
1.664060300E1,8.037086792E0,-3.099754028E0,9.153465271E-1,8.662626530E0
1.665066900E1,8.045768738E0,-3.302582245E0,8.330177307E-1,8.737011080E0
1.666073500E1,8.041128387E0,-3.464844818E0,8.327183533E-1,8.795357594E0
1.667080100E1,7.987689514E0,-3.539240112E0,9.960287476E-1,8.793263195E0
1.668086800E1,7.801626434E0,-3.485501862E0,1.315314789E0,8.645469984E0
1.669093400E1,7.547005920E0,-3.425027618E0,1.666484528E0,8.453714168E0
1.670100000E1,7.197931824E0,-3.353775787E0,1.911375275E0,8.167704084E0
1.671106600E1,6.829996948E0,-3.278931427E0,2.105072479E0,7.863305905E0
1.672113200E1,6.564449158E0,-3.104693756E0,2.136507111E0,7.569397512E0
1.673119900E1,6.465355225E0,-2.964884491E0,2.102976837E0,7.417133530E0
1.674126500E1,6.472689972E0,-2.856958923E0,2.141746216E0,7.392226093E0
1.675133100E1,6.600673828E0,-2.783611450E0,2.151326294E0,7.479678637E0
1.676139700E1,6.645730133E0,-2.733016663E0,2.056723022E0,7.474303892E0
1.677146300E1,6.620732117E0,-2.740052032E0,1.895508270E0,7.411810204E0
1.678153000E1,6.583160248E0,-2.794838104E0,1.651665344E0,7.340103357E0
1.679159600E1,6.637497253E0,-2.898123322E0,1.410816193E0,7.378745890E0
1.680166200E1,6.881190491E0,-3.087180176E0,1.242566071E0,7.643653213E0
1.681172800E1,7.277416534E0,-3.319796448E0,1.135089569E0,8.079001683E0
1.682179500E1,7.801027679E0,-3.575464783E0,1.115779724E0,8.653608823E0
1.683186100E1,8.447832642E0,-3.913012848E0,1.175655212E0,9.384013591E0
1.684192700E1,9.066945190E0,-4.239184570E0,1.267713776E0,1.008896819E1
1.685199300E1,9.620943146E0,-4.541555786E0,1.367107086E0,1.072647462E1
1.686205900E1,1.005084915E1,-4.756957855E0,1.458267517E0,1.121493472E1
1.687212600E1,1.030217651E1,-4.792883148E0,1.553768921E0,1.146825042E1
1.688219200E1,1.033196457E1,-4.702620850E0,1.606159973E0,1.146489793E1
1.689225800E1,1.045081741E1,-4.630620575E0,1.623523865E0,1.154547796E1
1.690232400E1,1.063852707E1,-4.755760345E0,1.716630249E0,1.177889358E1
1.691239000E1,1.097038696E1,-5.086871796E0,1.900897064E0,1.224087678E1
1.692245700E1,1.122949814E1,-5.441933441E0,1.973047028E0,1.263365278E1
1.693252300E1,1.141571091E1,-5.649551697E0,2.021097107E0,1.289653920E1
1.694258900E1,1.155162827E1,-5.699847107E0,2.044149170E0,1.304250430E1
1.695265500E1,1.168365372E1,-5.532644806E0,1.988764343E0,1.307949182E1
